/////////////////////////////////////////////////////////////////////////////////
/// Profile Data Ascii Dump (XRD)                                             ///
/////////////////////////////////////////////////////////////////////////////////

  Group     : Swayze
  Data      : GDS18
  File Name : GDS18.RAW

# Profile Datafile
          comment             = Mordenite 
          date & time         = 08-03-24 07:48:58 

# Measurement Condition
    X-ray tube
          target              = Cu 
          voltage             = 40.0 (kV)
          current             = 30.0 (mA)
    Slits
          divergence slit     = 2.00000 (deg) 
          scatter slit        = 2.00000 (deg) 
          receiving slit      = 0.15000 (mm)  
    Scanning
          drive axis          = Theta-2Theta 
          scan range          =    4.000 -   65.000 
          scan mode           = Continuous Scan 
          scan speed          =   2.0000 (deg/min) 
          sampling pitch      =   0.0200 (deg) 
          preset time         =   0.60 (sec) 

# Data      [ Total No. = 3051 ]
  <2Theta>   <   I   >
     4.0000       180
     4.0200       170
     4.0400       204
     4.0600       160
     4.0800       184
     4.1000       180
     4.1200       168
     4.1400       190
     4.1600       196
     4.1800       166
     4.2000       186
     4.2200       190
     4.2400       184
     4.2600       182
     4.2800       162
     4.3000       178
     4.3200       178
     4.3400       182
     4.3600       174
     4.3800       186
     4.4000       144
     4.4200       154
     4.4400       168
     4.4600       190
     4.4800       160
     4.5000       158
     4.5200       156
     4.5400       158
     4.5600       176
     4.5800       160
     4.6000       178
     4.6200       154
     4.6400       176
     4.6600       176
     4.6800       184
     4.7000       148
     4.7200       164
     4.7400       188
     4.7600       174
     4.7800       164
     4.8000       172
     4.8200       156
     4.8400       170
     4.8600       180
     4.8800       174
     4.9000       168
     4.9200       172
     4.9400       176
     4.9600       162
     4.9800       168
     5.0000       146
     5.0200       132
     5.0400       146
     5.0600       150
     5.0800       196
     5.1000       156
     5.1200       166
     5.1400       158
     5.1600       164
     5.1800       182
     5.2000       160
     5.2200       146
     5.2400       164
     5.2600       176
     5.2800       174
     5.3000       134
     5.3200       176
     5.3400       168
     5.3600       174
     5.3800       152
     5.4000       168
     5.4200       156
     5.4400       172
     5.4600       170
     5.4800       136
     5.5000       182
     5.5200       162
     5.5400       138
     5.5600       174
     5.5800       132
     5.6000       190
     5.6200       134
     5.6400       164
     5.6600       166
     5.6800       166
     5.7000       206
     5.7200       180
     5.7400       172
     5.7600       162
     5.7800       168
     5.8000       192
     5.8200       188
     5.8400       162
     5.8600       198
     5.8800       160
     5.9000       180
     5.9200       180
     5.9400       170
     5.9600       178
     5.9800       200
     6.0000       196
     6.0200       188
     6.0400       182
     6.0600       206
     6.0800       224
     6.1000       214
     6.1200       182
     6.1400       220
     6.1600       220
     6.1800       232
     6.2000       222
     6.2200       268
     6.2400       234
     6.2600       260
     6.2800       304
     6.3000       314
     6.3200       354
     6.3400       372
     6.3600       408
     6.3800       494
     6.4000       576
     6.4200       538
     6.4400       500
     6.4600       436
     6.4800       332
     6.5000       234
     6.5200       208
     6.5400       170
     6.5600       154
     6.5800       146
     6.6000       172
     6.6200       138
     6.6400       142
     6.6600       140
     6.6800       160
     6.7000       158
     6.7200       136
     6.7400       130
     6.7600       152
     6.7800       146
     6.8000       140
     6.8200       152
     6.8400       128
     6.8600       124
     6.8800       130
     6.9000       116
     6.9200       110
     6.9400       122
     6.9600       112
     6.9800       126
     7.0000       130
     7.0200       146
     7.0400       138
     7.0600       122
     7.0800       138
     7.1000       118
     7.1200       132
     7.1400       134
     7.1600       138
     7.1800       114
     7.2000       132
     7.2200       126
     7.2400       114
     7.2600       120
     7.2800       114
     7.3000       118
     7.3200       110
     7.3400       134
     7.3600       120
     7.3800       102
     7.4000       126
     7.4200       138
     7.4400       126
     7.4600       108
     7.4800       114
     7.5000       112
     7.5200       104
     7.5400       114
     7.5600       120
     7.5800       126
     7.6000       102
     7.6200       116
     7.6400       116
     7.6600       118
     7.6800       130
     7.7000       130
     7.7200       110
     7.7400       110
     7.7600       138
     7.7800       116
     7.8000       120
     7.8200       136
     7.8400       118
     7.8600        92
     7.8800       120
     7.9000       132
     7.9200       106
     7.9400       104
     7.9600       128
     7.9800       102
     8.0000       124
     8.0200       104
     8.0400       110
     8.0600       126
     8.0800       108
     8.1000       110
     8.1200       120
     8.1400       144
     8.1600       118
     8.1800       132
     8.2000       126
     8.2200       126
     8.2400       116
     8.2600       168
     8.2800       114
     8.3000       116
     8.3200       130
     8.3400       144
     8.3600       148
     8.3800       130
     8.4000       140
     8.4200       152
     8.4400       134
     8.4600       158
     8.4800       166
     8.5000       202
     8.5200       210
     8.5400       216
     8.5600       212
     8.5800       190
     8.6000       152
     8.6200       146
     8.6400       118
     8.6600       134
     8.6800       128
     8.7000       112
     8.7200       140
     8.7400       128
     8.7600       114
     8.7800       110
     8.8000       134
     8.8200       108
     8.8400       122
     8.8600       126
     8.8800       104
     8.9000       106
     8.9200       146
     8.9400       116
     8.9600       110
     8.9800       116
     9.0000       118
     9.0200       124
     9.0400       142
     9.0600       134
     9.0800       124
     9.1000       142
     9.1200       144
     9.1400       162
     9.1600       154
     9.1800       142
     9.2000       144
     9.2200       164
     9.2400       170
     9.2600       182
     9.2800       168
     9.3000       202
     9.3200       234
     9.3400       202
     9.3600       218
     9.3800       230
     9.4000       282
     9.4200       308
     9.4400       300
     9.4600       330
     9.4800       374
     9.5000       386
     9.5200       368
     9.5400       454
     9.5600       464
     9.5800       564
     9.6000       706
     9.6200       888
     9.6400      1042
     9.6600      1192
     9.6800      1258
     9.7000      1078
     9.7200       830
     9.7400       610
     9.7600       380
     9.7800       262
     9.8000       198
     9.8200       168
     9.8400       138
     9.8600       132
     9.8800       134
     9.9000       128
     9.9200       126
     9.9400       132
     9.9600       114
     9.9800       108
    10.0000       108
    10.0200       110
    10.0400       122
    10.0600       130
    10.0800       108
    10.1000       104
    10.1200       120
    10.1400        96
    10.1600       106
    10.1800        88
    10.2000       108
    10.2200       102
    10.2400       120
    10.2600       108
    10.2800       110
    10.3000       106
    10.3200        94
    10.3400       104
    10.3600        96
    10.3800       110
    10.4000       112
    10.4200       108
    10.4400        82
    10.4600        98
    10.4800        90
    10.5000        98
    10.5200        80
    10.5400       100
    10.5600        96
    10.5800       112
    10.6000       108
    10.6200        98
    10.6400       108
    10.6600        82
    10.6800        88
    10.7000       102
    10.7200       100
    10.7400        96
    10.7600       106
    10.7800       100
    10.8000        86
    10.8200        94
    10.8400       102
    10.8600       100
    10.8800        96
    10.9000        90
    10.9200       100
    10.9400       100
    10.9600        98
    10.9800        94
    11.0000        94
    11.0200       112
    11.0400        90
    11.0600        90
    11.0800        90
    11.1000        96
    11.1200        90
    11.1400        94
    11.1600        86
    11.1800        86
    11.2000        90
    11.2200       100
    11.2400        94
    11.2600        78
    11.2800        86
    11.3000        88
    11.3200       100
    11.3400        72
    11.3600        98
    11.3800        78
    11.4000        82
    11.4200        98
    11.4400        84
    11.4600        78
    11.4800        98
    11.5000       106
    11.5200        72
    11.5400        92
    11.5600        92
    11.5800        84
    11.6000       108
    11.6200        82
    11.6400       100
    11.6600        92
    11.6800        86
    11.7000        84
    11.7200        86
    11.7400       104
    11.7600        82
    11.7800        80
    11.8000        96
    11.8200        90
    11.8400        88
    11.8600        80
    11.8800        68
    11.9000        78
    11.9200        86
    11.9400        76
    11.9600        72
    11.9800        88
    12.0000        80
    12.0200        78
    12.0400        84
    12.0600       116
    12.0800        86
    12.1000        86
    12.1200        74
    12.1400        82
    12.1600       106
    12.1800        78
    12.2000        88
    12.2200        72
    12.2400       100
    12.2600       108
    12.2800        94
    12.3000        84
    12.3200        86
    12.3400        86
    12.3600        74
    12.3800        70
    12.4000        84
    12.4200        78
    12.4400        98
    12.4600        82
    12.4800        84
    12.5000        90
    12.5200        86
    12.5400        84
    12.5600        98
    12.5800        94
    12.6000       100
    12.6200        92
    12.6400       108
    12.6600        92
    12.6800       102
    12.7000       104
    12.7200       104
    12.7400        96
    12.7600       100
    12.7800       104
    12.8000       108
    12.8200       132
    12.8400       132
    12.8600       120
    12.8800       126
    12.9000       150
    12.9200       144
    12.9400       150
    12.9600       148
    12.9800       142
    13.0000       174
    13.0200       156
    13.0400       138
    13.0600       132
    13.0800       138
    13.1000       132
    13.1200       146
    13.1400       156
    13.1600       164
    13.1800       166
    13.2000       178
    13.2200       192
    13.2400       218
    13.2600       222
    13.2800       240
    13.3000       268
    13.3200       256
    13.3400       266
    13.3600       248
    13.3800       256
    13.4000       212
    13.4200       190
    13.4400       166
    13.4600       168
    13.4800       154
    13.5000       166
    13.5200       146
    13.5400       152
    13.5600       188
    13.5800       194
    13.6000       210
    13.6200       224
    13.6400       288
    13.6600       264
    13.6800       310
    13.7000       364
    13.7200       476
    13.7400       554
    13.7600       544
    13.7800       512
    13.8000       492
    13.8200       388
    13.8400       284
    13.8600       182
    13.8800       148
    13.9000       128
    13.9200       114
    13.9400        80
    13.9600        82
    13.9800        98
    14.0000        96
    14.0200        88
    14.0400        98
    14.0600       104
    14.0800        94
    14.1000       106
    14.1200       102
    14.1400        82
    14.1600        90
    14.1800        82
    14.2000        86
    14.2200        96
    14.2400        98
    14.2600        80
    14.2800        88
    14.3000        90
    14.3200        70
    14.3400        94
    14.3600        92
    14.3800       104
    14.4000       118
    14.4200       128
    14.4400       110
    14.4600       130
    14.4800       124
    14.5000       108
    14.5200       134
    14.5400        96
    14.5600       116
    14.5800        98
    14.6000        86
    14.6200       104
    14.6400        86
    14.6600        66
    14.6800        92
    14.7000        66
    14.7200        90
    14.7400        68
    14.7600        80
    14.7800       106
    14.8000       104
    14.8200        92
    14.8400        82
    14.8600       102
    14.8800       122
    14.9000       114
    14.9200       114
    14.9400       146
    14.9600       128
    14.9800       138
    15.0000       130
    15.0200       138
    15.0400       176
    15.0600       204
    15.0800       200
    15.1000       254
    15.1200       306
    15.1400       340
    15.1600       366
    15.1800       438
    15.2000       480
    15.2200       448
    15.2400       364
    15.2600       290
    15.2800       194
    15.3000       168
    15.3200       116
    15.3400       124
    15.3600       106
    15.3800        84
    15.4000        84
    15.4200        68
    15.4400        70
    15.4600        64
    15.4800        68
    15.5000        66
    15.5200        72
    15.5400        72
    15.5600        76
    15.5800        70
    15.6000        80
    15.6200        62
    15.6400        58
    15.6600        74
    15.6800        72
    15.7000        72
    15.7200        58
    15.7400        66
    15.7600        70
    15.7800        68
    15.8000        60
    15.8200        62
    15.8400        70
    15.8600        64
    15.8800        72
    15.9000        72
    15.9200        68
    15.9400        78
    15.9600        50
    15.9800        74
    16.0000        62
    16.0200        66
    16.0400        68
    16.0600        70
    16.0800        62
    16.1000        62
    16.1200        68
    16.1400        62
    16.1600        70
    16.1800        76
    16.2000        78
    16.2200        90
    16.2400        70
    16.2600        96
    16.2800        68
    16.3000        70
    16.3200        72
    16.3400        64
    16.3600        70
    16.3800        76
    16.4000        62
    16.4200        56
    16.4400        68
    16.4600        56
    16.4800        66
    16.5000        62
    16.5200        68
    16.5400        74
    16.5600        76
    16.5800        70
    16.6000        76
    16.6200        74
    16.6400        82
    16.6600        44
    16.6800        54
    16.7000        60
    16.7200        70
    16.7400        62
    16.7600        46
    16.7800        62
    16.8000        60
    16.8200        52
    16.8400        62
    16.8600        58
    16.8800        62
    16.9000        54
    16.9200        58
    16.9400        58
    16.9600        60
    16.9800        58
    17.0000        60
    17.0200        72
    17.0400        60
    17.0600        74
    17.0800        70
    17.1000        68
    17.1200        74
    17.1400        62
    17.1600        86
    17.1800        84
    17.2000        76
    17.2200        64
    17.2400        76
    17.2600        66
    17.2800        80
    17.3000        88
    17.3200        68
    17.3400        74
    17.3600        78
    17.3800        74
    17.4000        68
    17.4200        76
    17.4400        82
    17.4600        86
    17.4800        80
    17.5000       106
    17.5200        80
    17.5400        80
    17.5600        78
    17.5800        68
    17.6000        66
    17.6200        80
    17.6400        58
    17.6600        66
    17.6800        60
    17.7000        56
    17.7200        82
    17.7400        68
    17.7600        68
    17.7800        66
    17.8000        70
    17.8200        72
    17.8400        80
    17.8600        58
    17.8800        60
    17.9000        72
    17.9200        72
    17.9400        80
    17.9600        84
    17.9800        76
    18.0000        82
    18.0200        84
    18.0400        98
    18.0600        96
    18.0800        82
    18.1000        98
    18.1200        80
    18.1400        88
    18.1600        86
    18.1800        70
    18.2000        72
    18.2200        70
    18.2400        64
    18.2600        64
    18.2800        56
    18.3000        72
    18.3200        56
    18.3400        76
    18.3600        80
    18.3800        86
    18.4000        54
    18.4200        74
    18.4400        80
    18.4600        66
    18.4800        72
    18.5000        68
    18.5200        62
    18.5400        68
    18.5600        68
    18.5800        70
    18.6000        70
    18.6200        68
    18.6400        76
    18.6600        68
    18.6800        50
    18.7000        70
    18.7200        64
    18.7400        76
    18.7600        92
    18.7800        84
    18.8000        66
    18.8200        70
    18.8400        70
    18.8600        74
    18.8800        76
    18.9000        80
    18.9200        78
    18.9400        62
    18.9600        90
    18.9800        78
    19.0000        92
    19.0200        78
    19.0400       104
    19.0600        96
    19.0800       118
    19.1000       102
    19.1200       100
    19.1400       132
    19.1600       156
    19.1800       166
    19.2000       170
    19.2200       182
    19.2400       186
    19.2600       158
    19.2800       226
    19.3000       196
    19.3200       206
    19.3400       288
    19.3600       350
    19.3800       394
    19.4000       486
    19.4200       558
    19.4400       628
    19.4600       746
    19.4800       848
    19.5000       914
    19.5200       928
    19.5400       916
    19.5600       848
    19.5800       680
    19.6000       562
    19.6200       466
    19.6400       314
    19.6600       236
    19.6800       180
    19.7000       148
    19.7200       144
    19.7400       136
    19.7600       146
    19.7800       112
    19.8000       126
    19.8200       134
    19.8400       118
    19.8600       130
    19.8800       108
    19.9000       102
    19.9200        82
    19.9400        94
    19.9600        76
    19.9800        88
    20.0000        90
    20.0200        76
    20.0400        80
    20.0600        78
    20.0800        64
    20.1000        86
    20.1200        80
    20.1400        60
    20.1600        82
    20.1800        58
    20.2000        84
    20.2200        56
    20.2400        46
    20.2600        64
    20.2800        66
    20.3000        56
    20.3200        72
    20.3400        70
    20.3600        60
    20.3800        74
    20.4000        82
    20.4200        78
    20.4400        70
    20.4600        70
    20.4800        76
    20.5000        88
    20.5200        74
    20.5400        66
    20.5600        80
    20.5800        92
    20.6000        86
    20.6200       100
    20.6400        96
    20.6600       104
    20.6800        84
    20.7000       126
    20.7200        94
    20.7400       104
    20.7600       108
    20.7800        96
    20.8000       104
    20.8200       104
    20.8400        96
    20.8600        88
    20.8800        92
    20.9000        86
    20.9200        78
    20.9400        70
    20.9600        62
    20.9800        86
    21.0000        74
    21.0200        80
    21.0400        84
    21.0600        82
    21.0800        94
    21.1000        88
    21.1200       104
    21.1400        92
    21.1600       102
    21.1800       112
    21.2000       158
    21.2200       134
    21.2400       168
    21.2600       200
    21.2800       226
    21.3000       234
    21.3200       242
    21.3400       280
    21.3600       288
    21.3800       254
    21.4000       238
    21.4200       176
    21.4400       172
    21.4600       120
    21.4800       122
    21.5000        92
    21.5200        98
    21.5400       106
    21.5600        86
    21.5800       102
    21.6000        84
    21.6200       102
    21.6400        94
    21.6600        96
    21.6800       112
    21.7000       124
    21.7200       106
    21.7400       124
    21.7600       142
    21.7800       184
    21.8000       208
    21.8200       212
    21.8400       234
    21.8600       206
    21.8800       280
    21.9000       316
    21.9200       374
    21.9400       410
    21.9600       498
    21.9800       636
    22.0000       778
    22.0200      1044
    22.0400      1386
    22.0600      1704
    22.0800      2100
    22.1000      2498
    22.1200      2924
    22.1400      3126
    22.1600      3162
    22.1800      2790
    22.2000      2212
    22.2200      1664
    22.2400      1226
    22.2600       808
    22.2800       508
    22.3000       330
    22.3200       228
    22.3400       192
    22.3600       152
    22.3800       166
    22.4000       142
    22.4200       118
    22.4400       104
    22.4600       112
    22.4800        84
    22.5000        94
    22.5200        90
    22.5400        78
    22.5600        80
    22.5800        82
    22.6000        88
    22.6200        90
    22.6400        70
    22.6600       100
    22.6800        88
    22.7000        88
    22.7200        96
    22.7400        94
    22.7600       102
    22.7800       100
    22.8000       122
    22.8200       102
    22.8400       112
    22.8600       136
    22.8800       128
    22.9000       152
    22.9200       148
    22.9400       150
    22.9600       158
    22.9800       198
    23.0000       196
    23.0200       210
    23.0400       206
    23.0600       214
    23.0800       198
    23.1000       216
    23.1200       218
    23.1400       190
    23.1600       176
    23.1800       162
    23.2000       106
    23.2200        96
    23.2400        90
    23.2600       104
    23.2800       102
    23.3000        90
    23.3200       106
    23.3400       104
    23.3600       114
    23.3800       122
    23.4000       122
    23.4200       118
    23.4400       146
    23.4600       136
    23.4800       140
    23.5000       124
    23.5200       146
    23.5400       126
    23.5600       138
    23.5800        96
    23.6000       118
    23.6200        96
    23.6400        98
    23.6600        80
    23.6800        86
    23.7000        76
    23.7200        66
    23.7400        62
    23.7600        76
    23.7800        78
    23.8000        78
    23.8200        74
    23.8400        66
    23.8600        74
    23.8800        62
    23.9000        66
    23.9200        72
    23.9400        72
    23.9600        62
    23.9800        72
    24.0000        78
    24.0200        64
    24.0400        62
    24.0600        70
    24.0800        66
    24.1000        72
    24.1200        70
    24.1400        76
    24.1600        74
    24.1800        72
    24.2000        86
    24.2200        64
    24.2400        78
    24.2600        90
    24.2800       100
    24.3000        92
    24.3200       100
    24.3400        98
    24.3600        82
    24.3800       112
    24.4000       112
    24.4200       110
    24.4400       126
    24.4600        90
    24.4800       116
    24.5000        92
    24.5200        98
    24.5400        78
    24.5600        90
    24.5800        94
    24.6000        78
    24.6200       104
    24.6400        88
    24.6600        98
    24.6800        94
    24.7000        82
    24.7200        94
    24.7400        90
    24.7600        78
    24.7800       118
    24.8000       106
    24.8200       118
    24.8400       122
    24.8600       132
    24.8800       130
    24.9000       104
    24.9200       110
    24.9400       122
    24.9600       144
    24.9800       122
    25.0000       138
    25.0200       122
    25.0400       138
    25.0600       148
    25.0800       146
    25.1000       144
    25.1200       156
    25.1400       120
    25.1600       132
    25.1800       120
    25.2000       130
    25.2200       144
    25.2400       142
    25.2600       162
    25.2800       172
    25.3000       232
    25.3200       262
    25.3400       278
    25.3600       382
    25.3800       438
    25.4000       514
    25.4200       576
    25.4400       650
    25.4600       698
    25.4800       814
    25.5000       754
    25.5200       688
    25.5400       670
    25.5600       496
    25.5800       402
    25.6000       350
    25.6200       254
    25.6400       234
    25.6600       182
    25.6800       162
    25.7000       134
    25.7200       144
    25.7400       150
    25.7600       156
    25.7800       156
    25.8000       166
    25.8200       202
    25.8400       236
    25.8600       250
    25.8800       300
    25.9000       328
    25.9200       410
    25.9400       490
    25.9600       614
    25.9800       728
    26.0000       812
    26.0200       874
    26.0400       930
    26.0600      1070
    26.0800      1148
    26.1000      1424
    26.1200      1650
    26.1400      1748
    26.1600      1812
    26.1800      1856
    26.2000      1812
    26.2200      1660
    26.2400      1344
    26.2600      1164
    26.2800       980
    26.3000       738
    26.3200       578
    26.3400       484
    26.3600       398
    26.3800       342
    26.4000       300
    26.4200       280
    26.4400       274
    26.4600       296
    26.4800       282
    26.5000       280
    26.5200       274
    26.5400       238
    26.5600       216
    26.5800       190
    26.6000       180
    26.6200       142
    26.6400       140
    26.6600       112
    26.6800       110
    26.7000       108
    26.7200        98
    26.7400       110
    26.7600        90
    26.7800       102
    26.8000       136
    26.8200       110
    26.8400       108
    26.8600       140
    26.8800       126
    26.9000       134
    26.9200       138
    26.9400       148
    26.9600       140
    26.9800       132
    27.0000       128
    27.0200       110
    27.0400       138
    27.0600       114
    27.0800       128
    27.1000       130
    27.1200       146
    27.1400       140
    27.1600       150
    27.1800       148
    27.2000       160
    27.2200       184
    27.2400       182
    27.2600       196
    27.2800       238
    27.3000       266
    27.3200       310
    27.3400       300
    27.3600       348
    27.3800       384
    27.4000       410
    27.4200       434
    27.4400       452
    27.4600       528
    27.4800       566
    27.5000       604
    27.5200       656
    27.5400       734
    27.5600       792
    27.5800       774
    27.6000       776
    27.6200       820
    27.6400       822
    27.6600       836
    27.6800       870
    27.7000       934
    27.7200       988
    27.7400      1040
    27.7600      1018
    27.7800      1044
    27.8000       934
    27.8200       936
    27.8400       764
    27.8600       600
    27.8800       510
    27.9000       386
    27.9200       310
    27.9400       272
    27.9600       182
    27.9800       162
    28.0000       146
    28.0200       140
    28.0400       134
    28.0600       126
    28.0800       154
    28.1000       132
    28.1200       138
    28.1400       126
    28.1600       128
    28.1800       144
    28.2000       124
    28.2200       118
    28.2400       108
    28.2600        94
    28.2800       102
    28.3000        86
    28.3200        96
    28.3400       100
    28.3600       104
    28.3800        90
    28.4000        90
    28.4200       102
    28.4400       108
    28.4600       110
    28.4800        98
    28.5000       106
    28.5200       110
    28.5400       120
    28.5600       142
    28.5800       128
    28.6000       138
    28.6200       134
    28.6400       118
    28.6600       146
    28.6800       138
    28.7000       116
    28.7200       122
    28.7400       100
    28.7600       124
    28.7800       108
    28.8000        94
    28.8200       104
    28.8400        86
    28.8600       114
    28.8800       104
    28.9000        88
    28.9200        80
    28.9400        84
    28.9600        72
    28.9800        94
    29.0000        86
    29.0200        82
    29.0400        82
    29.0600        86
    29.0800       100
    29.1000        90
    29.1200        66
    29.1400        98
    29.1600        86
    29.1800        76
    29.2000        84
    29.2200        72
    29.2400        76
    29.2600        94
    29.2800        88
    29.3000        64
    29.3200        82
    29.3400        88
    29.3600        80
    29.3800        62
    29.4000        68
    29.4200        80
    29.4400        90
    29.4600        78
    29.4800        80
    29.5000        78
    29.5200        64
    29.5400        74
    29.5600        76
    29.5800        84
    29.6000        80
    29.6200        90
    29.6400        80
    29.6600        64
    29.6800        94
    29.7000        70
    29.7200        88
    29.7400        76
    29.7600        56
    29.7800        72
    29.8000        74
    29.8200        76
    29.8400        78
    29.8600        76
    29.8800        80
    29.9000        72
    29.9200        80
    29.9400        78
    29.9600        80
    29.9800        72
    30.0000        82
    30.0200        94
    30.0400        74
    30.0600        88
    30.0800        96
    30.1000       100
    30.1200       100
    30.1400       130
    30.1600       124
    30.1800       116
    30.2000       136
    30.2200       144
    30.2400       144
    30.2600       142
    30.2800       154
    30.3000       146
    30.3200       124
    30.3400       124
    30.3600       148
    30.3800       116
    30.4000       116
    30.4200       118
    30.4400       106
    30.4600        96
    30.4800       108
    30.5000        90
    30.5200       118
    30.5400       140
    30.5600       112
    30.5800       150
    30.6000       152
    30.6200       190
    30.6400       216
    30.6600       226
    30.6800       268
    30.7000       288
    30.7200       354
    30.7400       360
    30.7600       380
    30.7800       374
    30.8000       354
    30.8200       338
    30.8400       256
    30.8600       232
    30.8800       180
    30.9000       174
    30.9200       142
    30.9400       134
    30.9600       110
    30.9800        86
    31.0000        58
    31.0200        84
    31.0400        70
    31.0600        72
    31.0800        66
    31.1000        84
    31.1200        78
    31.1400        64
    31.1600        68
    31.1800        76
    31.2000        74
    31.2200        66
    31.2400        74
    31.2600        54
    31.2800        74
    31.3000        92
    31.3200        56
    31.3400        72
    31.3600        72
    31.3800        74
    31.4000        70
    31.4200        60
    31.4400        62
    31.4600        62
    31.4800        76
    31.5000        72
    31.5200        64
    31.5400        58
    31.5600        52
    31.5800        66
    31.6000        62
    31.6200        62
    31.6400        58
    31.6600        68
    31.6800        72
    31.7000        68
    31.7200        66
    31.7400        72
    31.7600        54
    31.7800        58
    31.8000        70
    31.8200        70
    31.8400        72
    31.8600        70
    31.8800        56
    31.9000        48
    31.9200        44
    31.9400        56
    31.9600        54
    31.9800        64
    32.0000        66
    32.0200        50
    32.0400        66
    32.0600        62
    32.0800        64
    32.1000        56
    32.1200        80
    32.1400        62
    32.1600        72
    32.1800        64
    32.2000        82
    32.2200        60
    32.2400        68
    32.2600        72
    32.2800        80
    32.3000        66
    32.3200        60
    32.3400        68
    32.3600        76
    32.3800        76
    32.4000        68
    32.4200        66
    32.4400        56
    32.4600        90
    32.4800        76
    32.5000        84
    32.5200       100
    32.5400       114
    32.5600        96
    32.5800        84
    32.6000        96
    32.6200        96
    32.6400        90
    32.6600        88
    32.6800       100
    32.7000        90
    32.7200        72
    32.7400        96
    32.7600        98
    32.7800        72
    32.8000        92
    32.8200       112
    32.8400       118
    32.8600       124
    32.8800       112
    32.9000       108
    32.9200       126
    32.9400       130
    32.9600       154
    32.9800       116
    33.0000       148
    33.0200       148
    33.0400       154
    33.0600       170
    33.0800       166
    33.1000       148
    33.1200       140
    33.1400       144
    33.1600       144
    33.1800       120
    33.2000       114
    33.2200       104
    33.2400        94
    33.2600        84
    33.2800        82
    33.3000        76
    33.3200        68
    33.3400        76
    33.3600        56
    33.3800        72
    33.4000        58
    33.4200        72
    33.4400        72
    33.4600        66
    33.4800        58
    33.5000        52
    33.5200        54
    33.5400        64
    33.5600        66
    33.5800        66
    33.6000        66
    33.6200        70
    33.6400        72
    33.6600        50
    33.6800        64
    33.7000        68
    33.7200        54
    33.7400        64
    33.7600        72
    33.7800        64
    33.8000        74
    33.8200        80
    33.8400        86
    33.8600       102
    33.8800        94
    33.9000       110
    33.9200       126
    33.9400       122
    33.9600       112
    33.9800       126
    34.0000       106
    34.0200       104
    34.0400       108
    34.0600        94
    34.0800        78
    34.1000        98
    34.1200        70
    34.1400        60
    34.1600        68
    34.1800        62
    34.2000        64
    34.2200        70
    34.2400        64
    34.2600        56
    34.2800        76
    34.3000        66
    34.3200        78
    34.3400        66
    34.3600        70
    34.3800        80
    34.4000        60
    34.4200        84
    34.4400        74
    34.4600        94
    34.4800        78
    34.5000        78
    34.5200        86
    34.5400        92
    34.5600        88
    34.5800       100
    34.6000        90
    34.6200        82
    34.6400       100
    34.6600        74
    34.6800        82
    34.7000        98
    34.7200       126
    34.7400       130
    34.7600       140
    34.7800       134
    34.8000       178
    34.8200       204
    34.8400       234
    34.8600       340
    34.8800       412
    34.9000       374
    34.9200       460
    34.9400       462
    34.9600       404
    34.9800       404
    35.0000       348
    35.0200       308
    35.0400       262
    35.0600       214
    35.0800       172
    35.1000       146
    35.1200       112
    35.1400       124
    35.1600        96
    35.1800        82
    35.2000        90
    35.2200        74
    35.2400        88
    35.2600       122
    35.2800        84
    35.3000       104
    35.3200        98
    35.3400       118
    35.3600       132
    35.3800       132
    35.4000       160
    35.4200       166
    35.4400       198
    35.4600       218
    35.4800       222
    35.5000       238
    35.5200       270
    35.5400       280
    35.5600       262
    35.5800       234
    35.6000       172
    35.6200       172
    35.6400       172
    35.6600       144
    35.6800       122
    35.7000       100
    35.7200        78
    35.7400        72
    35.7600        70
    35.7800        64
    35.8000        78
    35.8200        62
    35.8400        86
    35.8600        72
    35.8800        44
    35.9000        68
    35.9200        62
    35.9400        64
    35.9600        72
    35.9800        62
    36.0000        76
    36.0200        84
    36.0400        78
    36.0600        62
    36.0800        82
    36.1000        60
    36.1200        72
    36.1400        72
    36.1600       100
    36.1800        86
    36.2000        96
    36.2200        88
    36.2400       114
    36.2600       128
    36.2800       122
    36.3000       138
    36.3200       148
    36.3400       148
    36.3600       160
    36.3800       164
    36.4000       154
    36.4200       146
    36.4400       178
    36.4600       152
    36.4800       140
    36.5000       148
    36.5200        98
    36.5400       120
    36.5600       100
    36.5800       108
    36.6000       126
    36.6200       104
    36.6400       104
    36.6600        90
    36.6800        92
    36.7000        94
    36.7200       104
    36.7400       118
    36.7600       102
    36.7800       106
    36.8000       126
    36.8200       110
    36.8400        92
    36.8600        88
    36.8800       110
    36.9000        76
    36.9200        94
    36.9400        86
    36.9600        96
    36.9800        92
    37.0000        78
    37.0200        82
    37.0400        84
    37.0600        86
    37.0800        84
    37.1000        80
    37.1200        70
    37.1400        76
    37.1600        68
    37.1800        72
    37.2000        78
    37.2200        60
    37.2400        52
    37.2600        58
    37.2800        56
    37.3000        36
    37.3200        54
    37.3400        66
    37.3600        62
    37.3800        40
    37.4000        52
    37.4200        48
    37.4400        68
    37.4600        60
    37.4800        40
    37.5000        58
    37.5200        66
    37.5400        60
    37.5600        56
    37.5800        56
    37.6000        58
    37.6200        68
    37.6400        44
    37.6600        58
    37.6800        60
    37.7000        52
    37.7200        52
    37.7400        56
    37.7600        54
    37.7800        50
    37.8000        60
    37.8200        48
    37.8400        48
    37.8600        66
    37.8800        68
    37.9000        42
    37.9200        46
    37.9400        70
    37.9600        42
    37.9800        56
    38.0000        50
    38.0200        66
    38.0400        58
    38.0600        62
    38.0800        74
    38.1000        50
    38.1200        66
    38.1400        48
    38.1600        54
    38.1800        64
    38.2000        52
    38.2200        54
    38.2400        60
    38.2600        58
    38.2800        56
    38.3000        58
    38.3200        48
    38.3400        66
    38.3600        56
    38.3800        62
    38.4000        64
    38.4200        54
    38.4400        54
    38.4600        68
    38.4800        56
    38.5000        56
    38.5200        66
    38.5400        46
    38.5600        54
    38.5800        44
    38.6000        52
    38.6200        56
    38.6400        62
    38.6600        44
    38.6800        58
    38.7000        48
    38.7200        64
    38.7400        66
    38.7600        60
    38.7800        50
    38.8000        64
    38.8200        66
    38.8400        58
    38.8600        60
    38.8800        56
    38.9000        58
    38.9200        56
    38.9400        70
    38.9600        62
    38.9800        70
    39.0000        62
    39.0200        76
    39.0400        76
    39.0600        70
    39.0800        76
    39.1000        66
    39.1200        78
    39.1400        90
    39.1600        66
    39.1800        90
    39.2000        74
    39.2200        68
    39.2400        78
    39.2600       102
    39.2800        86
    39.3000        84
    39.3200        84
    39.3400        98
    39.3600       106
    39.3800        98
    39.4000       102
    39.4200       106
    39.4400       116
    39.4600        96
    39.4800        94
    39.5000       128
    39.5200       100
    39.5400       120
    39.5600       116
    39.5800       118
    39.6000        98
    39.6200        94
    39.6400        98
    39.6600       106
    39.6800        78
    39.7000        82
    39.7200        72
    39.7400        72
    39.7600        60
    39.7800        66
    39.8000        64
    39.8200        72
    39.8400        72
    39.8600        68
    39.8800        68
    39.9000        66
    39.9200        54
    39.9400        60
    39.9600        54
    39.9800        84
    40.0000        60
    40.0200        70
    40.0400        52
    40.0600        76
    40.0800        62
    40.1000        68
    40.1200        70
    40.1400        68
    40.1600        88
    40.1800        84
    40.2000        92
    40.2200        94
    40.2400       104
    40.2600       138
    40.2800       136
    40.3000       132
    40.3200       140
    40.3400       156
    40.3600       188
    40.3800       148
    40.4000       162
    40.4200       172
    40.4400       142
    40.4600       132
    40.4800       150
    40.5000       130
    40.5200        88
    40.5400       106
    40.5600        86
    40.5800        76
    40.6000        74
    40.6200        78
    40.6400        70
    40.6600        72
    40.6800        62
    40.7000        76
    40.7200        66
    40.7400        70
    40.7600        90
    40.7800        62
    40.8000        64
    40.8200        60
    40.8400        68
    40.8600        62
    40.8800        68
    40.9000        58
    40.9200        54
    40.9400        68
    40.9600        60
    40.9800        68
    41.0000        46
    41.0200        74
    41.0400        56
    41.0600        52
    41.0800        62
    41.1000        60
    41.1200        52
    41.1400        48
    41.1600        50
    41.1800        64
    41.2000        64
    41.2200        62
    41.2400        60
    41.2600        66
    41.2800        54
    41.3000        64
    41.3200        60
    41.3400        74
    41.3600        54
    41.3800        56
    41.4000        72
    41.4200        74
    41.4400        78
    41.4600        70
    41.4800        66
    41.5000        78
    41.5200        76
    41.5400        78
    41.5600        88
    41.5800        84
    41.6000        80
    41.6200        94
    41.6400       104
    41.6600        64
    41.6800        86
    41.7000       102
    41.7200        94
    41.7400       102
    41.7600        86
    41.7800        90
    41.8000        92
    41.8200        78
    41.8400        80
    41.8600        82
    41.8800        68
    41.9000        68
    41.9200        70
    41.9400        66
    41.9600        70
    41.9800        68
    42.0000        70
    42.0200        56
    42.0400        74
    42.0600        60
    42.0800        60
    42.1000        66
    42.1200        70
    42.1400        52
    42.1600        72
    42.1800        70
    42.2000        70
    42.2200        72
    42.2400        70
    42.2600        88
    42.2800        90
    42.3000       100
    42.3200        94
    42.3400       108
    42.3600        92
    42.3800        76
    42.4000        88
    42.4200        84
    42.4400        86
    42.4600        82
    42.4800        76
    42.5000        78
    42.5200        70
    42.5400        82
    42.5600        84
    42.5800        68
    42.6000        70
    42.6200        92
    42.6400        74
    42.6600        66
    42.6800        70
    42.7000        68
    42.7200        72
    42.7400        64
    42.7600        64
    42.7800        72
    42.8000        58
    42.8200        52
    42.8400        52
    42.8600        50
    42.8800        52
    42.9000        60
    42.9200        70
    42.9400        50
    42.9600        72
    42.9800        64
    43.0000        56
    43.0200        58
    43.0400        64
    43.0600        64
    43.0800        50
    43.1000        58
    43.1200        46
    43.1400        52
    43.1600        54
    43.1800        60
    43.2000        58
    43.2200        68
    43.2400        62
    43.2600        52
    43.2800        62
    43.3000        48
    43.3200        54
    43.3400        50
    43.3600        62
    43.3800        56
    43.4000        64
    43.4200        58
    43.4400        64
    43.4600        58
    43.4800        58
    43.5000        60
    43.5200        58
    43.5400        52
    43.5600        42
    43.5800        60
    43.6000        44
    43.6200        50
    43.6400        50
    43.6600        70
    43.6800        56
    43.7000        66
    43.7200        70
    43.7400        62
    43.7600        64
    43.7800        66
    43.8000        86
    43.8200        96
    43.8400        68
    43.8600        88
    43.8800        78
    43.9000       104
    43.9200       108
    43.9400       104
    43.9600       118
    43.9800       146
    44.0000       162
    44.0200       228
    44.0400       290
    44.0600       350
    44.0800       372
    44.1000       362
    44.1200       392
    44.1400       368
    44.1600       376
    44.1800       338
    44.2000       314
    44.2200       258
    44.2400       268
    44.2600       236
    44.2800       206
    44.3000       198
    44.3200       126
    44.3400       158
    44.3600       122
    44.3800       106
    44.4000       100
    44.4200       118
    44.4400       100
    44.4600        90
    44.4800        98
    44.5000        88
    44.5200       106
    44.5400        94
    44.5600        86
    44.5800        76
    44.6000        88
    44.6200        70
    44.6400        80
    44.6600        82
    44.6800        78
    44.7000        68
    44.7200        88
    44.7400        98
    44.7600        90
    44.7800        82
    44.8000        98
    44.8200        94
    44.8400       100
    44.8600        88
    44.8800       120
    44.9000        98
    44.9200       106
    44.9400        70
    44.9600        80
    44.9800        70
    45.0000        72
    45.0200        64
    45.0400        68
    45.0600        80
    45.0800        78
    45.1000        82
    45.1200        82
    45.1400        74
    45.1600        94
    45.1800        86
    45.2000        90
    45.2200       102
    45.2400       110
    45.2600       124
    45.2800       120
    45.3000       118
    45.3200       142
    45.3400       114
    45.3600       120
    45.3800       144
    45.4000       128
    45.4200       112
    45.4400       106
    45.4600        90
    45.4800        94
    45.5000       108
    45.5200        86
    45.5400        86
    45.5600        78
    45.5800        86
    45.6000        56
    45.6200        82
    45.6400        74
    45.6600        62
    45.6800        64
    45.7000        60
    45.7200        74
    45.7400        92
    45.7600        60
    45.7800        62
    45.8000        68
    45.8200        74
    45.8400        50
    45.8600        70
    45.8800        54
    45.9000        60
    45.9200        70
    45.9400        64
    45.9600        56
    45.9800        50
    46.0000        58
    46.0200        72
    46.0400        66
    46.0600        66
    46.0800        76
    46.1000        64
    46.1200        54
    46.1400        70
    46.1600        90
    46.1800        92
    46.2000       128
    46.2200       108
    46.2400       112
    46.2600       138
    46.2800       170
    46.3000       184
    46.3200       192
    46.3400       190
    46.3600       232
    46.3800       230
    46.4000       248
    46.4200       258
    46.4400       256
    46.4600       244
    46.4800       218
    46.5000       208
    46.5200       176
    46.5400       216
    46.5600       176
    46.5800       158
    46.6000       146
    46.6200       140
    46.6400       122
    46.6600        92
    46.6800        94
    46.7000        74
    46.7200        94
    46.7400        92
    46.7600        76
    46.7800       100
    46.8000        86
    46.8200        72
    46.8400       106
    46.8600        92
    46.8800       102
    46.9000       100
    46.9200        94
    46.9400       102
    46.9600        94
    46.9800       100
    47.0000        84
    47.0200       112
    47.0400        90
    47.0600        92
    47.0800        94
    47.1000        94
    47.1200        88
    47.1400        90
    47.1600        90
    47.1800        80
    47.2000        98
    47.2200        84
    47.2400       102
    47.2600        96
    47.2800       120
    47.3000       112
    47.3200       122
    47.3400       102
    47.3600       114
    47.3800       110
    47.4000        90
    47.4200        78
    47.4400        66
    47.4600        80
    47.4800        72
    47.5000        64
    47.5200        58
    47.5400        56
    47.5600        40
    47.5800        36
    47.6000        50
    47.6200        48
    47.6400        56
    47.6600        58
    47.6800        44
    47.7000        68
    47.7200        66
    47.7400        52
    47.7600        52
    47.7800        64
    47.8000        64
    47.8200        58
    47.8400        62
    47.8600        72
    47.8800        62
    47.9000        70
    47.9200        76
    47.9400        78
    47.9600        76
    47.9800        88
    48.0000        72
    48.0200        88
    48.0400        84
    48.0600        90
    48.0800        88
    48.1000        90
    48.1200        98
    48.1400        86
    48.1600        94
    48.1800       108
    48.2000        98
    48.2200       124
    48.2400        96
    48.2600       130
    48.2800       112
    48.3000       104
    48.3200       102
    48.3400       102
    48.3600        76
    48.3800        78
    48.4000        84
    48.4200        82
    48.4400        90
    48.4600        66
    48.4800        58
    48.5000        62
    48.5200        70
    48.5400        66
    48.5600        64
    48.5800        74
    48.6000        70
    48.6200        86
    48.6400       108
    48.6600        82
    48.6800        80
    48.7000        82
    48.7200        92
    48.7400        92
    48.7600        78
    48.7800        90
    48.8000       104
    48.8200        78
    48.8400        84
    48.8600        96
    48.8800        70
    48.9000        84
    48.9200        72
    48.9400        56
    48.9600        78
    48.9800        74
    49.0000        90
    49.0200        82
    49.0400        86
    49.0600        88
    49.0800       104
    49.1000        92
    49.1200       104
    49.1400        84
    49.1600        76
    49.1800        86
    49.2000        70
    49.2200        66
    49.2400        70
    49.2600        80
    49.2800        62
    49.3000        68
    49.3200        52
    49.3400        54
    49.3600        54
    49.3800        52
    49.4000        52
    49.4200        46
    49.4400        54
    49.4600        54
    49.4800        46
    49.5000        58
    49.5200        40
    49.5400        38
    49.5600        60
    49.5800        56
    49.6000        52
    49.6200        52
    49.6400        44
    49.6600        48
    49.6800        72
    49.7000        56
    49.7200        54
    49.7400        56
    49.7600        58
    49.7800        58
    49.8000        56
    49.8200        84
    49.8400        68
    49.8600        70
    49.8800        88
    49.9000        58
    49.9200        84
    49.9400        76
    49.9600        72
    49.9800        78
    50.0000        80
    50.0200        80
    50.0400        70
    50.0600       102
    50.0800        80
    50.1000        84
    50.1200       106
    50.1400       108
    50.1600       120
    50.1800       114
    50.2000       132
    50.2200       164
    50.2400       194
    50.2600       248
    50.2800       232
    50.3000       246
    50.3200       238
    50.3400       196
    50.3600       202
    50.3800       170
    50.4000       172
    50.4200       174
    50.4400       154
    50.4600       126
    50.4800       116
    50.5000       110
    50.5200       100
    50.5400       110
    50.5600        80
    50.5800        80
    50.6000        82
    50.6200        94
    50.6400        94
    50.6600        92
    50.6800        92
    50.7000       120
    50.7200       116
    50.7400       102
    50.7600       122
    50.7800       124
    50.8000       104
    50.8200        98
    50.8400       124
    50.8600        92
    50.8800       108
    50.9000        84
    50.9200        70
    50.9400        80
    50.9600        60
    50.9800        64
    51.0000        66
    51.0200        60
    51.0400        66
    51.0600        58
    51.0800        56
    51.1000        56
    51.1200        50
    51.1400        52
    51.1600        68
    51.1800        48
    51.2000        42
    51.2200        52
    51.2400        46
    51.2600        54
    51.2800        56
    51.3000        64
    51.3200        60
    51.3400        52
    51.3600        58
    51.3800        66
    51.4000        52
    51.4200        60
    51.4400        60
    51.4600        46
    51.4800        48
    51.5000        74
    51.5200        48
    51.5400        52
    51.5600        46
    51.5800        44
    51.6000        64
    51.6200        72
    51.6400        54
    51.6600        50
    51.6800        62
    51.7000        50
    51.7200        60
    51.7400        54
    51.7600        52
    51.7800        44
    51.8000        66
    51.8200        68
    51.8400        50
    51.8600        48
    51.8800        54
    51.9000        62
    51.9200        56
    51.9400        44
    51.9600        46
    51.9800        42
    52.0000        52
    52.0200        64
    52.0400        48
    52.0600        52
    52.0800        32
    52.1000        48
    52.1200        36
    52.1400        52
    52.1600        44
    52.1800        34
    52.2000        50
    52.2200        44
    52.2400        56
    52.2600        50
    52.2800        46
    52.3000        38
    52.3200        46
    52.3400        46
    52.3600        42
    52.3800        60
    52.4000        56
    52.4200        46
    52.4400        46
    52.4600        58
    52.4800        58
    52.5000        46
    52.5200        62
    52.5400        54
    52.5600        54
    52.5800        64
    52.6000        66
    52.6200        56
    52.6400        58
    52.6600        46
    52.6800        56
    52.7000        48
    52.7200        54
    52.7400        46
    52.7600        58
    52.7800        54
    52.8000        52
    52.8200        56
    52.8400        40
    52.8600        50
    52.8800        56
    52.9000        52
    52.9200        82
    52.9400        58
    52.9600        66
    52.9800        74
    53.0000        76
    53.0200        80
    53.0400        90
    53.0600        68
    53.0800        82
    53.1000        80
    53.1200        84
    53.1400        78
    53.1600        98
    53.1800        86
    53.2000        80
    53.2200       108
    53.2400        94
    53.2600       102
    53.2800        78
    53.3000        84
    53.3200        70
    53.3400        84
    53.3600        72
    53.3800        46
    53.4000        70
    53.4200        70
    53.4400        70
    53.4600        52
    53.4800        58
    53.5000        52
    53.5200        58
    53.5400        64
    53.5600        72
    53.5800        62
    53.6000        52
    53.6200        70
    53.6400        64
    53.6600        68
    53.6800        68
    53.7000        72
    53.7200        76
    53.7400        64
    53.7600        80
    53.7800        66
    53.8000        92
    53.8200        82
    53.8400       106
    53.8600        78
    53.8800        94
    53.9000       108
    53.9200       110
    53.9400       118
    53.9600       114
    53.9800       114
    54.0000       138
    54.0200        90
    54.0400       116
    54.0600       102
    54.0800        96
    54.1000        92
    54.1200       112
    54.1400        86
    54.1600        74
    54.1800        86
    54.2000        88
    54.2200        74
    54.2400        66
    54.2600        74
    54.2800        66
    54.3000        62
    54.3200        70
    54.3400        54
    54.3600        72
    54.3800        62
    54.4000        62
    54.4200        58
    54.4400        60
    54.4600        66
    54.4800        52
    54.5000        76
    54.5200        52
    54.5400        66
    54.5600        74
    54.5800        72
    54.6000        66
    54.6200        70
    54.6400        80
    54.6600        66
    54.6800        70
    54.7000        74
    54.7200        78
    54.7400        72
    54.7600        74
    54.7800        86
    54.8000        72
    54.8200        92
    54.8400        68
    54.8600        74
    54.8800        68
    54.9000        90
    54.9200        84
    54.9400        88
    54.9600       104
    54.9800        96
    55.0000       136
    55.0200       122
    55.0400       140
    55.0600       118
    55.0800       114
    55.1000       144
    55.1200       152
    55.1400       130
    55.1600       132
    55.1800       120
    55.2000       128
    55.2200       110
    55.2400       110
    55.2600        90
    55.2800       102
    55.3000        94
    55.3200        74
    55.3400        70
    55.3600        78
    55.3800        84
    55.4000        88
    55.4200        58
    55.4400        70
    55.4600        78
    55.4800        64
    55.5000        62
    55.5200        66
    55.5400        86
    55.5600        58
    55.5800        60
    55.6000        50
    55.6200        60
    55.6400        70
    55.6600        52
    55.6800        78
    55.7000        54
    55.7200        62
    55.7400        62
    55.7600        62
    55.7800        62
    55.8000        58
    55.8200        56
    55.8400        66
    55.8600        58
    55.8800        76
    55.9000        50
    55.9200        58
    55.9400        54
    55.9600        58
    55.9800        58
    56.0000        58
    56.0200        56
    56.0400        40
    56.0600        50
    56.0800        46
    56.1000        48
    56.1200        54
    56.1400        60
    56.1600        42
    56.1800        64
    56.2000        44
    56.2200        52
    56.2400        44
    56.2600        46
    56.2800        50
    56.3000        48
    56.3200        44
    56.3400        48
    56.3600        54
    56.3800        60
    56.4000        52
    56.4200        40
    56.4400        54
    56.4600        48
    56.4800        46
    56.5000        54
    56.5200        62
    56.5400        48
    56.5600        62
    56.5800        80
    56.6000        66
    56.6200        70
    56.6400        70
    56.6600        76
    56.6800        58
    56.7000        68
    56.7200        62
    56.7400        54
    56.7600        54
    56.7800        48
    56.8000        54
    56.8200        64
    56.8400        58
    56.8600        58
    56.8800        50
    56.9000        48
    56.9200        68
    56.9400        62
    56.9600        60
    56.9800        56
    57.0000        48
    57.0200        54
    57.0400        46
    57.0600        54
    57.0800        52
    57.1000        50
    57.1200        56
    57.1400        52
    57.1600        38
    57.1800        62
    57.2000        48
    57.2200        60
    57.2400        52
    57.2600        54
    57.2800        58
    57.3000        62
    57.3200        62
    57.3400        76
    57.3600        60
    57.3800        66
    57.4000        76
    57.4200        74
    57.4400        60
    57.4600        70
    57.4800        58
    57.5000        82
    57.5200        90
    57.5400        90
    57.5600        64
    57.5800        94
    57.6000        90
    57.6200        86
    57.6400        70
    57.6600        84
    57.6800        74
    57.7000        90
    57.7200        66
    57.7400        72
    57.7600        58
    57.7800        68
    57.8000        62
    57.8200        54
    57.8400        56
    57.8600        56
    57.8800        60
    57.9000        54
    57.9200        46
    57.9400        48
    57.9600        56
    57.9800        40
    58.0000        38
    58.0200        40
    58.0400        36
    58.0600        44
    58.0800        44
    58.1000        42
    58.1200        52
    58.1400        38
    58.1600        38
    58.1800        32
    58.2000        46
    58.2200        44
    58.2400        54
    58.2600        50
    58.2800        52
    58.3000        54
    58.3200        46
    58.3400        36
    58.3600        56
    58.3800        54
    58.4000        54
    58.4200        38
    58.4400        44
    58.4600        50
    58.4800        46
    58.5000        48
    58.5200        50
    58.5400        44
    58.5600        46
    58.5800        46
    58.6000        52
    58.6200        56
    58.6400        54
    58.6600        50
    58.6800        54
    58.7000        50
    58.7200        44
    58.7400        44
    58.7600        46
    58.7800        54
    58.8000        56
    58.8200        50
    58.8400        62
    58.8600        50
    58.8800        50
    58.9000        42
    58.9200        56
    58.9400        58
    58.9600        56
    58.9800        48
    59.0000        58
    59.0200        42
    59.0400        42
    59.0600        48
    59.0800        38
    59.1000        50
    59.1200        46
    59.1400        56
    59.1600        54
    59.1800        54
    59.2000        60
    59.2200        54
    59.2400        68
    59.2600        60
    59.2800        66
    59.3000        74
    59.3200        58
    59.3400        58
    59.3600        64
    59.3800        56
    59.4000        68
    59.4200        74
    59.4400        62
    59.4600        60
    59.4800        90
    59.5000        72
    59.5200        90
    59.5400        72
    59.5600        78
    59.5800        82
    59.6000        84
    59.6200        98
    59.6400        92
    59.6600       118
    59.6800       108
    59.7000       136
    59.7200       136
    59.7400       126
    59.7600       112
    59.7800       124
    59.8000       112
    59.8200       102
    59.8400       102
    59.8600        94
    59.8800        88
    59.9000        86
    59.9200        78
    59.9400        68
    59.9600        62
    59.9800        60
    60.0000        68
    60.0200        70
    60.0400        68
    60.0600        68
    60.0800        84
    60.1000        54
    60.1200        46
    60.1400        52
    60.1600        50
    60.1800        62
    60.2000        46
    60.2200        54
    60.2400        50
    60.2600        58
    60.2800        64
    60.3000        76
    60.3200        54
    60.3400        76
    60.3600        86
    60.3800       104
    60.4000       104
    60.4200       108
    60.4400       132
    60.4600       122
    60.4800       128
    60.5000       122
    60.5200       156
    60.5400       122
    60.5600       148
    60.5800       164
    60.6000       176
    60.6200       190
    60.6400       212
    60.6600       200
    60.6800       242
    60.7000       218
    60.7200       220
    60.7400       198
    60.7600       160
    60.7800       140
    60.8000       128
    60.8200       152
    60.8400       124
    60.8600       122
    60.8800       136
    60.9000       100
    60.9200        84
    60.9400        68
    60.9600        84
    60.9800        64
    61.0000        62
    61.0200        58
    61.0400        60
    61.0600        50
    61.0800        56
    61.1000        62
    61.1200        58
    61.1400        52
    61.1600        54
    61.1800        50
    61.2000        50
    61.2200        50
    61.2400        56
    61.2600        58
    61.2800        48
    61.3000        52
    61.3200        62
    61.3400        64
    61.3600        66
    61.3800        52
    61.4000        66
    61.4200        50
    61.4400        48
    61.4600        50
    61.4800        52
    61.5000        50
    61.5200        56
    61.5400        62
    61.5600        52
    61.5800        58
    61.6000        44
    61.6200        42
    61.6400        54
    61.6600        62
    61.6800        54
    61.7000        44
    61.7200        54
    61.7400        40
    61.7600        54
    61.7800        52
    61.8000        56
    61.8200        42
    61.8400        56
    61.8600        58
    61.8800        64
    61.9000        62
    61.9200        58
    61.9400        60
    61.9600        44
    61.9800        52
    62.0000        56
    62.0200        56
    62.0400        50
    62.0600        50
    62.0800        52
    62.1000        50
    62.1200        56
    62.1400        42
    62.1600        68
    62.1800        52
    62.2000        54
    62.2200        46
    62.2400        40
    62.2600        44
    62.2800        54
    62.3000        52
    62.3200        48
    62.3400        60
    62.3600        62
    62.3800        70
    62.4000        70
    62.4200        62
    62.4400        58
    62.4600        72
    62.4800        58
    62.5000        68
    62.5200        62
    62.5400        82
    62.5600        70
    62.5800        68
    62.6000        92
    62.6200        80
    62.6400        84
    62.6600       102
    62.6800        72
    62.7000       104
    62.7200       112
    62.7400        88
    62.7600       126
    62.7800        88
    62.8000        88
    62.8200        96
    62.8400        94
    62.8600       106
    62.8800        72
    62.9000        82
    62.9200        94
    62.9400        76
    62.9600        90
    62.9800        76
    63.0000        58
    63.0200        54
    63.0400        74
    63.0600        56
    63.0800        68
    63.1000        56
    63.1200        50
    63.1400        52
    63.1600        54
    63.1800        48
    63.2000        52
    63.2200        52
    63.2400        56
    63.2600        44
    63.2800        36
    63.3000        56
    63.3200        52
    63.3400        60
    63.3600        62
    63.3800        54
    63.4000        46
    63.4200        52
    63.4400        52
    63.4600        46
    63.4800        62
    63.5000        56
    63.5200        58
    63.5400        42
    63.5600        48
    63.5800        42
    63.6000        46
    63.6200        48
    63.6400        48
    63.6600        54
    63.6800        62
    63.7000        52
    63.7200        46
    63.7400        50
    63.7600        68
    63.7800        50
    63.8000        56
    63.8200        74
    63.8400        54
    63.8600        56
    63.8800        58
    63.9000        66
    63.9200        58
    63.9400        66
    63.9600        58
    63.9800        54
    64.0000        74
    64.0200        64
    64.0400        72
    64.0600        72
    64.0800       104
    64.1000        92
    64.1200       114
    64.1400       114
    64.1600       142
    64.1800       138
    64.2000       132
    64.2200       134
    64.2400       152
    64.2600       130
    64.2800       156
    64.3000       158
    64.3200       170
    64.3400       190
    64.3600       170
    64.3800       186
    64.4000       188
    64.4200       234
    64.4400       192
    64.4600       192
    64.4800       168
    64.5000       154
    64.5200       162
    64.5400       128
    64.5600       144
    64.5800       126
    64.6000       114
    64.6200       112
    64.6400       108
    64.6600        90
    64.6800       110
    64.7000        98
    64.7200        66
    64.7400        82
    64.7600        68
    64.7800        64
    64.8000        60
    64.8200        60
    64.8400        48
    64.8600        68
    64.8800        66
    64.9000        62
    64.9200        54
    64.9400        54
    64.9600        56
    64.9800        68
    65.0000        54
