/////////////////////////////////////////////////////////////////////////////////
/// Profile Data Ascii Dump (XRD)                                             ///
/////////////////////////////////////////////////////////////////////////////////

  Group     : Swayze
  Data      : GDS188
  File Name : GDS188.RAW

# Profile Datafile
          comment             = Saponite 
          date & time         = 08-04-28 08:20:18 

# Measurement Condition
    X-ray tube
          target              = Cu 
          voltage             = 40.0 (kV)
          current             = 30.0 (mA)
    Slits
          divergence slit     = 2.00000 (deg) 
          scatter slit        = 2.00000 (deg) 
          receiving slit      = 0.15000 (mm)  
    Scanning
          drive axis          = Theta-2Theta 
          scan range          =    4.000 -   65.000 
          scan mode           = Continuous Scan 
          scan speed          =   2.0000 (deg/min) 
          sampling pitch      =   0.0200 (deg) 
          preset time         =   0.60 (sec) 

# Data      [ Total No. = 3051 ]
  <2Theta>   <   I   >
     4.0000       234
     4.0200       232
     4.0400       208
     4.0600       238
     4.0800       230
     4.1000       238
     4.1200       238
     4.1400       226
     4.1600       222
     4.1800       222
     4.2000       240
     4.2200       222
     4.2400       238
     4.2600       234
     4.2800       238
     4.3000       232
     4.3200       258
     4.3400       228
     4.3600       236
     4.3800       234
     4.4000       230
     4.4200       214
     4.4400       226
     4.4600       208
     4.4800       210
     4.5000       238
     4.5200       214
     4.5400       222
     4.5600       234
     4.5800       214
     4.6000       226
     4.6200       208
     4.6400       230
     4.6600       232
     4.6800       214
     4.7000       202
     4.7200       216
     4.7400       184
     4.7600       232
     4.7800       214
     4.8000       228
     4.8200       214
     4.8400       232
     4.8600       230
     4.8800       224
     4.9000       192
     4.9200       228
     4.9400       234
     4.9600       240
     4.9800       232
     5.0000       228
     5.0200       228
     5.0400       226
     5.0600       236
     5.0800       232
     5.1000       232
     5.1200       218
     5.1400       232
     5.1600       242
     5.1800       248
     5.2000       206
     5.2200       252
     5.2400       218
     5.2600       224
     5.2800       214
     5.3000       218
     5.3200       230
     5.3400       242
     5.3600       230
     5.3800       248
     5.4000       292
     5.4200       252
     5.4400       264
     5.4600       234
     5.4800       236
     5.5000       230
     5.5200       242
     5.5400       250
     5.5600       270
     5.5800       252
     5.6000       272
     5.6200       256
     5.6400       278
     5.6600       258
     5.6800       260
     5.7000       280
     5.7200       254
     5.7400       278
     5.7600       282
     5.7800       288
     5.8000       270
     5.8200       318
     5.8400       302
     5.8600       336
     5.8800       308
     5.9000       308
     5.9200       328
     5.9400       334
     5.9600       332
     5.9800       304
     6.0000       324
     6.0200       340
     6.0400       328
     6.0600       350
     6.0800       370
     6.1000       364
     6.1200       346
     6.1400       354
     6.1600       370
     6.1800       350
     6.2000       348
     6.2200       372
     6.2400       386
     6.2600       400
     6.2800       398
     6.3000       418
     6.3200       420
     6.3400       474
     6.3600       422
     6.3800       404
     6.4000       410
     6.4200       460
     6.4400       470
     6.4600       496
     6.4800       502
     6.5000       498
     6.5200       460
     6.5400       534
     6.5600       554
     6.5800       550
     6.6000       578
     6.6200       592
     6.6400       608
     6.6600       604
     6.6800       642
     6.7000       642
     6.7200       716
     6.7400       658
     6.7600       748
     6.7800       828
     6.8000       854
     6.8200       820
     6.8400       848
     6.8600       852
     6.8800       900
     6.9000       952
     6.9200      1008
     6.9400      1078
     6.9600      1130
     6.9800      1094
     7.0000      1212
     7.0200      1228
     7.0400      1340
     7.0600      1430
     7.0800      1440
     7.1000      1526
     7.1200      1626
     7.1400      1640
     7.1600      1640
     7.1800      1572
     7.2000      1656
     7.2200      1616
     7.2400      1584
     7.2600      1502
     7.2800      1412
     7.3000      1390
     7.3200      1240
     7.3400      1194
     7.3600      1108
     7.3800      1032
     7.4000       976
     7.4200       942
     7.4400       944
     7.4600       884
     7.4800       824
     7.5000       732
     7.5200       716
     7.5400       748
     7.5600       686
     7.5800       628
     7.6000       614
     7.6200       584
     7.6400       526
     7.6600       520
     7.6800       484
     7.7000       478
     7.7200       450
     7.7400       472
     7.7600       404
     7.7800       402
     7.8000       428
     7.8200       390
     7.8400       376
     7.8600       350
     7.8800       338
     7.9000       310
     7.9200       282
     7.9400       278
     7.9600       288
     7.9800       272
     8.0000       274
     8.0200       266
     8.0400       258
     8.0600       262
     8.0800       238
     8.1000       246
     8.1200       224
     8.1400       238
     8.1600       224
     8.1800       222
     8.2000       210
     8.2200       208
     8.2400       198
     8.2600       212
     8.2800       194
     8.3000       190
     8.3200       190
     8.3400       202
     8.3600       182
     8.3800       166
     8.4000       204
     8.4200       156
     8.4400       188
     8.4600       156
     8.4800       180
     8.5000       172
     8.5200       160
     8.5400       172
     8.5600       164
     8.5800       180
     8.6000       200
     8.6200       146
     8.6400       154
     8.6600       180
     8.6800       130
     8.7000       170
     8.7200       170
     8.7400       172
     8.7600       186
     8.7800       186
     8.8000       196
     8.8200       156
     8.8400       164
     8.8600       152
     8.8800       156
     8.9000       148
     8.9200       158
     8.9400       150
     8.9600       140
     8.9800       166
     9.0000       150
     9.0200       148
     9.0400       130
     9.0600       160
     9.0800       140
     9.1000       134
     9.1200       114
     9.1400       118
     9.1600       124
     9.1800       154
     9.2000       138
     9.2200       136
     9.2400       144
     9.2600       148
     9.2800       140
     9.3000       132
     9.3200       140
     9.3400       122
     9.3600       128
     9.3800       136
     9.4000       124
     9.4200       142
     9.4400       128
     9.4600       124
     9.4800       134
     9.5000       122
     9.5200       126
     9.5400       138
     9.5600       156
     9.5800       132
     9.6000       140
     9.6200       138
     9.6400       140
     9.6600       148
     9.6800       134
     9.7000       126
     9.7200       146
     9.7400       122
     9.7600       120
     9.7800       124
     9.8000       134
     9.8200       128
     9.8400       126
     9.8600       132
     9.8800       118
     9.9000       130
     9.9200       120
     9.9400       122
     9.9600       136
     9.9800       114
    10.0000       120
    10.0200       116
    10.0400       118
    10.0600       120
    10.0800       122
    10.1000       120
    10.1200       134
    10.1400       138
    10.1600       126
    10.1800       144
    10.2000       144
    10.2200       132
    10.2400       104
    10.2600       132
    10.2800       128
    10.3000       144
    10.3200       152
    10.3400       132
    10.3600       168
    10.3800       180
    10.4000       222
    10.4200       232
    10.4400       226
    10.4600       194
    10.4800       150
    10.5000       132
    10.5200       106
    10.5400       108
    10.5600       106
    10.5800        80
    10.6000       112
    10.6200        88
    10.6400       118
    10.6600        96
    10.6800       110
    10.7000       114
    10.7200        92
    10.7400       104
    10.7600       116
    10.7800        84
    10.8000        90
    10.8200        88
    10.8400       112
    10.8600       106
    10.8800        94
    10.9000        92
    10.9200        96
    10.9400       108
    10.9600       110
    10.9800        98
    11.0000        98
    11.0200        94
    11.0400       100
    11.0600        84
    11.0800        78
    11.1000        96
    11.1200        84
    11.1400        86
    11.1600       100
    11.1800       106
    11.2000        96
    11.2200        88
    11.2400        98
    11.2600        90
    11.2800       100
    11.3000       100
    11.3200        78
    11.3400        90
    11.3600        88
    11.3800        80
    11.4000        92
    11.4200       106
    11.4400        68
    11.4600        82
    11.4800        96
    11.5000        70
    11.5200       100
    11.5400        90
    11.5600       106
    11.5800        94
    11.6000       104
    11.6200       102
    11.6400        76
    11.6600        84
    11.6800        78
    11.7000        98
    11.7200        90
    11.7400        84
    11.7600       108
    11.7800        98
    11.8000        78
    11.8200        74
    11.8400       102
    11.8600        78
    11.8800        94
    11.9000        88
    11.9200        88
    11.9400        78
    11.9600        92
    11.9800        84
    12.0000        82
    12.0200        92
    12.0400       100
    12.0600       104
    12.0800       102
    12.1000        60
    12.1200        94
    12.1400        84
    12.1600        84
    12.1800       108
    12.2000       102
    12.2200        90
    12.2400        86
    12.2600        96
    12.2800        88
    12.3000       106
    12.3200        88
    12.3400        86
    12.3600        82
    12.3800        88
    12.4000       100
    12.4200        74
    12.4400        84
    12.4600        92
    12.4800        82
    12.5000        76
    12.5200        88
    12.5400        78
    12.5600        82
    12.5800        76
    12.6000        88
    12.6200        84
    12.6400        76
    12.6600        76
    12.6800        66
    12.7000        72
    12.7200        88
    12.7400        84
    12.7600        74
    12.7800        84
    12.8000        72
    12.8200        84
    12.8400        80
    12.8600        80
    12.8800        70
    12.9000        72
    12.9200        90
    12.9400        80
    12.9600        72
    12.9800        80
    13.0000        68
    13.0200       100
    13.0400        90
    13.0600        84
    13.0800        78
    13.1000        78
    13.1200        70
    13.1400        80
    13.1600        84
    13.1800        94
    13.2000        74
    13.2200        86
    13.2400        74
    13.2600        90
    13.2800        78
    13.3000        80
    13.3200        84
    13.3400        62
    13.3600        70
    13.3800        64
    13.4000        88
    13.4200        76
    13.4400        92
    13.4600        78
    13.4800        66
    13.5000        82
    13.5200        62
    13.5400        80
    13.5600        82
    13.5800        80
    13.6000        78
    13.6200        68
    13.6400        90
    13.6600        82
    13.6800       102
    13.7000        86
    13.7200        74
    13.7400        74
    13.7600        78
    13.7800        96
    13.8000        88
    13.8200        76
    13.8400        98
    13.8600        92
    13.8800        90
    13.9000        68
    13.9200        76
    13.9400        78
    13.9600        88
    13.9800        92
    14.0000        96
    14.0200        94
    14.0400        92
    14.0600       102
    14.0800        98
    14.1000       106
    14.1200        94
    14.1400        92
    14.1600       100
    14.1800       102
    14.2000        96
    14.2200       106
    14.2400       114
    14.2600       118
    14.2800       126
    14.3000       118
    14.3200       146
    14.3400       116
    14.3600       124
    14.3800       146
    14.4000       120
    14.4200       128
    14.4400       162
    14.4600       124
    14.4800       162
    14.5000       126
    14.5200       148
    14.5400       122
    14.5600       152
    14.5800       126
    14.6000       134
    14.6200       148
    14.6400       118
    14.6600       120
    14.6800       110
    14.7000       154
    14.7200       112
    14.7400       100
    14.7600       132
    14.7800       114
    14.8000       118
    14.8200       108
    14.8400        96
    14.8600        88
    14.8800        92
    14.9000        78
    14.9200       100
    14.9400        94
    14.9600       108
    14.9800       108
    15.0000        88
    15.0200       104
    15.0400        98
    15.0600       112
    15.0800        94
    15.1000        90
    15.1200        80
    15.1400        88
    15.1600        86
    15.1800        94
    15.2000        96
    15.2200        88
    15.2400        90
    15.2600        74
    15.2800        82
    15.3000        64
    15.3200        78
    15.3400        76
    15.3600        90
    15.3800        90
    15.4000        92
    15.4200        70
    15.4400        92
    15.4600       100
    15.4800        82
    15.5000        94
    15.5200        74
    15.5400        90
    15.5600        80
    15.5800        74
    15.6000        80
    15.6200        90
    15.6400        90
    15.6600        80
    15.6800        86
    15.7000        72
    15.7200        84
    15.7400        80
    15.7600        72
    15.7800        78
    15.8000        88
    15.8200        90
    15.8400        68
    15.8600        86
    15.8800        74
    15.9000        64
    15.9200        74
    15.9400        68
    15.9600        64
    15.9800        78
    16.0000        74
    16.0200        82
    16.0400        62
    16.0600        68
    16.0800        66
    16.1000        62
    16.1200        62
    16.1400        72
    16.1600        68
    16.1800        80
    16.2000        68
    16.2200        74
    16.2400        60
    16.2600        62
    16.2800        66
    16.3000        56
    16.3200        74
    16.3400        78
    16.3600        72
    16.3800        70
    16.4000        66
    16.4200        80
    16.4400        68
    16.4600        70
    16.4800        92
    16.5000        78
    16.5200        56
    16.5400        62
    16.5600        62
    16.5800        58
    16.6000        68
    16.6200        62
    16.6400        66
    16.6600        62
    16.6800        60
    16.7000        54
    16.7200        62
    16.7400        58
    16.7600        78
    16.7800        66
    16.8000        60
    16.8200        76
    16.8400        72
    16.8600        56
    16.8800        52
    16.9000        70
    16.9200        74
    16.9400        54
    16.9600        60
    16.9800        92
    17.0000        62
    17.0200        52
    17.0400        62
    17.0600        72
    17.0800        70
    17.1000        62
    17.1200        64
    17.1400        58
    17.1600        68
    17.1800        68
    17.2000        62
    17.2200        78
    17.2400        68
    17.2600        60
    17.2800        68
    17.3000        72
    17.3200        70
    17.3400        62
    17.3600        60
    17.3800        66
    17.4000        74
    17.4200        64
    17.4400        72
    17.4600        50
    17.4800        60
    17.5000        74
    17.5200        60
    17.5400        78
    17.5600        78
    17.5800        60
    17.6000        82
    17.6200        66
    17.6400        78
    17.6600        72
    17.6800        86
    17.7000       102
    17.7200        76
    17.7400        74
    17.7600        68
    17.7800        80
    17.8000        74
    17.8200        86
    17.8400        82
    17.8600        80
    17.8800        62
    17.9000        76
    17.9200        66
    17.9400        80
    17.9600        84
    17.9800        70
    18.0000        72
    18.0200        68
    18.0400        74
    18.0600        70
    18.0800        62
    18.1000        78
    18.1200        76
    18.1400        68
    18.1600        66
    18.1800        70
    18.2000        70
    18.2200        58
    18.2400        60
    18.2600        76
    18.2800        82
    18.3000        68
    18.3200        84
    18.3400        64
    18.3600        66
    18.3800        56
    18.4000        66
    18.4200        56
    18.4400        82
    18.4600        64
    18.4800        70
    18.5000        72
    18.5200        66
    18.5400        80
    18.5600        78
    18.5800        76
    18.6000        74
    18.6200        74
    18.6400        62
    18.6600        68
    18.6800        54
    18.7000        66
    18.7200        68
    18.7400        66
    18.7600        54
    18.7800        68
    18.8000        62
    18.8200        80
    18.8400        74
    18.8600        64
    18.8800        74
    18.9000        74
    18.9200        90
    18.9400       108
    18.9600       116
    18.9800       120
    19.0000        94
    19.0200       122
    19.0400       126
    19.0600       150
    19.0800       214
    19.1000       204
    19.1200       212
    19.1400       222
    19.1600       256
    19.1800       276
    19.2000       284
    19.2200       284
    19.2400       280
    19.2600       300
    19.2800       260
    19.3000       258
    19.3200       256
    19.3400       220
    19.3600       222
    19.3800       230
    19.4000       216
    19.4200       206
    19.4400       204
    19.4600       202
    19.4800       202
    19.5000       218
    19.5200       204
    19.5400       210
    19.5600       248
    19.5800       184
    19.6000       204
    19.6200       204
    19.6400       164
    19.6600       176
    19.6800       174
    19.7000       166
    19.7200       176
    19.7400       168
    19.7600       156
    19.7800       170
    19.8000       134
    19.8200       142
    19.8400       136
    19.8600       144
    19.8800       138
    19.9000       156
    19.9200       138
    19.9400       148
    19.9600       162
    19.9800       164
    20.0000       148
    20.0200       158
    20.0400       150
    20.0600       156
    20.0800       130
    20.1000       132
    20.1200       138
    20.1400       156
    20.1600       122
    20.1800       122
    20.2000       120
    20.2200       134
    20.2400       142
    20.2600       130
    20.2800       126
    20.3000       138
    20.3200       118
    20.3400       130
    20.3600       114
    20.3800       116
    20.4000       126
    20.4200       126
    20.4400       126
    20.4600       132
    20.4800       132
    20.5000       106
    20.5200        94
    20.5400       112
    20.5600       122
    20.5800       116
    20.6000       124
    20.6200       126
    20.6400       100
    20.6600       128
    20.6800       116
    20.7000       138
    20.7200       110
    20.7400       112
    20.7600       102
    20.7800        90
    20.8000       114
    20.8200       108
    20.8400       142
    20.8600        88
    20.8800       132
    20.9000       106
    20.9200       120
    20.9400       128
    20.9600       118
    20.9800       148
    21.0000       156
    21.0200       128
    21.0400       136
    21.0600       140
    21.0800       118
    21.1000       130
    21.1200       110
    21.1400       126
    21.1600       110
    21.1800       100
    21.2000       114
    21.2200       118
    21.2400       112
    21.2600       102
    21.2800        98
    21.3000       118
    21.3200       108
    21.3400        92
    21.3600       110
    21.3800       108
    21.4000       104
    21.4200       112
    21.4400       110
    21.4600       106
    21.4800       102
    21.5000       124
    21.5200       120
    21.5400        98
    21.5600        98
    21.5800        92
    21.6000       102
    21.6200       120
    21.6400        94
    21.6600       102
    21.6800       122
    21.7000       116
    21.7200        98
    21.7400        90
    21.7600       102
    21.7800        76
    21.8000       108
    21.8200        98
    21.8400       106
    21.8600       110
    21.8800       100
    21.9000       106
    21.9200       114
    21.9400       114
    21.9600       108
    21.9800        98
    22.0000       102
    22.0200        94
    22.0400       116
    22.0600       104
    22.0800        96
    22.1000       108
    22.1200       106
    22.1400       102
    22.1600       128
    22.1800        92
    22.2000        90
    22.2200       104
    22.2400        84
    22.2600       110
    22.2800        82
    22.3000       100
    22.3200        88
    22.3400        94
    22.3600       116
    22.3800       124
    22.4000       106
    22.4200        98
    22.4400        96
    22.4600       108
    22.4800       106
    22.5000        98
    22.5200       102
    22.5400       106
    22.5600       112
    22.5800       100
    22.6000       110
    22.6200       102
    22.6400        88
    22.6600        98
    22.6800       110
    22.7000       118
    22.7200       104
    22.7400        92
    22.7600       114
    22.7800       102
    22.8000       110
    22.8200       104
    22.8400       102
    22.8600        90
    22.8800        90
    22.9000       116
    22.9200        88
    22.9400        86
    22.9600       110
    22.9800        90
    23.0000       100
    23.0200        98
    23.0400       102
    23.0600        76
    23.0800       104
    23.1000       116
    23.1200        96
    23.1400       100
    23.1600       110
    23.1800        94
    23.2000        80
    23.2200       106
    23.2400        96
    23.2600       100
    23.2800        78
    23.3000        88
    23.3200       100
    23.3400        98
    23.3600       102
    23.3800       116
    23.4000        80
    23.4200        92
    23.4400        80
    23.4600       104
    23.4800        94
    23.5000        98
    23.5200        90
    23.5400        84
    23.5600        94
    23.5800        84
    23.6000        92
    23.6200       106
    23.6400       100
    23.6600        82
    23.6800       106
    23.7000        70
    23.7200        84
    23.7400        98
    23.7600       100
    23.7800       104
    23.8000        92
    23.8200        86
    23.8400       102
    23.8600       100
    23.8800       102
    23.9000       108
    23.9200        94
    23.9400        98
    23.9600        94
    23.9800       102
    24.0000       100
    24.0200        82
    24.0400        90
    24.0600        96
    24.0800        94
    24.1000        88
    24.1200        94
    24.1400        84
    24.1600       114
    24.1800        90
    24.2000        88
    24.2200       100
    24.2400        96
    24.2600       112
    24.2800       100
    24.3000       112
    24.3200       106
    24.3400        92
    24.3600        86
    24.3800       116
    24.4000       100
    24.4200       100
    24.4400        88
    24.4600        96
    24.4800        88
    24.5000        86
    24.5200       108
    24.5400        90
    24.5600       122
    24.5800        78
    24.6000        92
    24.6200        94
    24.6400       112
    24.6600        98
    24.6800       108
    24.7000       108
    24.7200        96
    24.7400       104
    24.7600       106
    24.7800        96
    24.8000        94
    24.8200       104
    24.8400        90
    24.8600        74
    24.8800        96
    24.9000        88
    24.9200        84
    24.9400        76
    24.9600        76
    24.9800        98
    25.0000       102
    25.0200        94
    25.0400       100
    25.0600        78
    25.0800       102
    25.1000        84
    25.1200        88
    25.1400        94
    25.1600       104
    25.1800        80
    25.2000        80
    25.2200        84
    25.2400        84
    25.2600       100
    25.2800        90
    25.3000        98
    25.3200        96
    25.3400        86
    25.3600        96
    25.3800       112
    25.4000       104
    25.4200       102
    25.4400        94
    25.4600        90
    25.4800        94
    25.5000        90
    25.5200        90
    25.5400        88
    25.5600        84
    25.5800       100
    25.6000        82
    25.6200        92
    25.6400        94
    25.6600        92
    25.6800        92
    25.7000       100
    25.7200        82
    25.7400        88
    25.7600        98
    25.7800        94
    25.8000        84
    25.8200        86
    25.8400        94
    25.8600        96
    25.8800       106
    25.9000        90
    25.9200        98
    25.9400       100
    25.9600        96
    25.9800        80
    26.0000        88
    26.0200       112
    26.0400        96
    26.0600       106
    26.0800        98
    26.1000        86
    26.1200        98
    26.1400       114
    26.1600        98
    26.1800        98
    26.2000       100
    26.2200       122
    26.2400       114
    26.2600       128
    26.2800       142
    26.3000       120
    26.3200       128
    26.3400       128
    26.3600       124
    26.3800       130
    26.4000       144
    26.4200       128
    26.4400       116
    26.4600       122
    26.4800       122
    26.5000       134
    26.5200       132
    26.5400       124
    26.5600       130
    26.5800       130
    26.6000       118
    26.6200       122
    26.6400       120
    26.6600       110
    26.6800       120
    26.7000       132
    26.7200       114
    26.7400       136
    26.7600       122
    26.7800       144
    26.8000       150
    26.8200       146
    26.8400       128
    26.8600       124
    26.8800       128
    26.9000       136
    26.9200       130
    26.9400       118
    26.9600       124
    26.9800       108
    27.0000       106
    27.0200       162
    27.0400       148
    27.0600       132
    27.0800       142
    27.1000       146
    27.1200       158
    27.1400       124
    27.1600       118
    27.1800       128
    27.2000       142
    27.2200       122
    27.2400       128
    27.2600       120
    27.2800       104
    27.3000       136
    27.3200       128
    27.3400       142
    27.3600       150
    27.3800       170
    27.4000       172
    27.4200       166
    27.4400       176
    27.4600       186
    27.4800       176
    27.5000       180
    27.5200       172
    27.5400       140
    27.5600       134
    27.5800       156
    27.6000       134
    27.6200       114
    27.6400       116
    27.6600       104
    27.6800       116
    27.7000       120
    27.7200       104
    27.7400       108
    27.7600       116
    27.7800       108
    27.8000       124
    27.8200       114
    27.8400       122
    27.8600       106
    27.8800       110
    27.9000       118
    27.9200       112
    27.9400       130
    27.9600       122
    27.9800       116
    28.0000       134
    28.0200       152
    28.0400       132
    28.0600       122
    28.0800       148
    28.1000       142
    28.1200       140
    28.1400       154
    28.1600       152
    28.1800       150
    28.2000       172
    28.2200       154
    28.2400       172
    28.2600       174
    28.2800       180
    28.3000       252
    28.3200       198
    28.3400       262
    28.3600       264
    28.3800       266
    28.4000       272
    28.4200       280
    28.4400       306
    28.4600       262
    28.4800       288
    28.5000       266
    28.5200       280
    28.5400       240
    28.5600       230
    28.5800       214
    28.6000       210
    28.6200       214
    28.6400       230
    28.6600       186
    28.6800       208
    28.7000       202
    28.7200       214
    28.7400       242
    28.7600       254
    28.7800       230
    28.8000       258
    28.8200       250
    28.8400       318
    28.8600       258
    28.8800       290
    28.9000       300
    28.9200       274
    28.9400       316
    28.9600       310
    28.9800       292
    29.0000       350
    29.0200       344
    29.0400       356
    29.0600       338
    29.0800       384
    29.1000       324
    29.1200       426
    29.1400       370
    29.1600       460
    29.1800       418
    29.2000       434
    29.2200       442
    29.2400       434
    29.2600       424
    29.2800       420
    29.3000       472
    29.3200       444
    29.3400       414
    29.3600       422
    29.3800       402
    29.4000       410
    29.4200       344
    29.4400       396
    29.4600       348
    29.4800       320
    29.5000       286
    29.5200       294
    29.5400       286
    29.5600       250
    29.5800       236
    29.6000       236
    29.6200       210
    29.6400       248
    29.6600       212
    29.6800       178
    29.7000       204
    29.7200       222
    29.7400       184
    29.7600       234
    29.7800       182
    29.8000       164
    29.8200       166
    29.8400       136
    29.8600       104
    29.8800       122
    29.9000       120
    29.9200       108
    29.9400       114
    29.9600       126
    29.9800       106
    30.0000       118
    30.0200       144
    30.0400       110
    30.0600       158
    30.0800       126
    30.1000       134
    30.1200       134
    30.1400       138
    30.1600       144
    30.1800       152
    30.2000       154
    30.2200       150
    30.2400       132
    30.2600       122
    30.2800       132
    30.3000       108
    30.3200       106
    30.3400       104
    30.3600       122
    30.3800       110
    30.4000        88
    30.4200        84
    30.4400        96
    30.4600        74
    30.4800        90
    30.5000        94
    30.5200        86
    30.5400        90
    30.5600        86
    30.5800        76
    30.6000        84
    30.6200        96
    30.6400        98
    30.6600        92
    30.6800       110
    30.7000        96
    30.7200       144
    30.7400       108
    30.7600       110
    30.7800       110
    30.8000       120
    30.8200       102
    30.8400       106
    30.8600       104
    30.8800        78
    30.9000        88
    30.9200        86
    30.9400        78
    30.9600        86
    30.9800        76
    31.0000        80
    31.0200        68
    31.0400        70
    31.0600        68
    31.0800        80
    31.1000        88
    31.1200        98
    31.1400        74
    31.1600        68
    31.1800        80
    31.2000        80
    31.2200        82
    31.2400        62
    31.2600        70
    31.2800        76
    31.3000        68
    31.3200        72
    31.3400        88
    31.3600        72
    31.3800        90
    31.4000        86
    31.4200       114
    31.4400       108
    31.4600       110
    31.4800       126
    31.5000       142
    31.5200       134
    31.5400       152
    31.5600       174
    31.5800       150
    31.6000       158
    31.6200       156
    31.6400       124
    31.6600       134
    31.6800       164
    31.7000       126
    31.7200       116
    31.7400        94
    31.7600       110
    31.7800       126
    31.8000        88
    31.8200       102
    31.8400        88
    31.8600        86
    31.8800        86
    31.9000        76
    31.9200        74
    31.9400        56
    31.9600        66
    31.9800        68
    32.0000        72
    32.0200        66
    32.0400        58
    32.0600        70
    32.0800        58
    32.1000        70
    32.1200        68
    32.1400        60
    32.1600        70
    32.1800        48
    32.2000        60
    32.2200        48
    32.2400        52
    32.2600        52
    32.2800        46
    32.3000        70
    32.3200        76
    32.3400        62
    32.3600        54
    32.3800        52
    32.4000        70
    32.4200        68
    32.4400        62
    32.4600        44
    32.4800        64
    32.5000        70
    32.5200        76
    32.5400        66
    32.5600        94
    32.5800        82
    32.6000        72
    32.6200        62
    32.6400        78
    32.6600        84
    32.6800       106
    32.7000        76
    32.7200        76
    32.7400        80
    32.7600        68
    32.7800        74
    32.8000        70
    32.8200        68
    32.8400        90
    32.8600        94
    32.8800       100
    32.9000       100
    32.9200       132
    32.9400       104
    32.9600        68
    32.9800       100
    33.0000        94
    33.0200        96
    33.0400        76
    33.0600        68
    33.0800        84
    33.1000        52
    33.1200        78
    33.1400        62
    33.1600        60
    33.1800        72
    33.2000        58
    33.2200        64
    33.2400        62
    33.2600        56
    33.2800        44
    33.3000        64
    33.3200        54
    33.3400        66
    33.3600        82
    33.3800        72
    33.4000        82
    33.4200        72
    33.4400        66
    33.4600        78
    33.4800        70
    33.5000        90
    33.5200        76
    33.5400        66
    33.5600        82
    33.5800       102
    33.6000        96
    33.6200        90
    33.6400       110
    33.6600       114
    33.6800       106
    33.7000       104
    33.7200       104
    33.7400       138
    33.7600       138
    33.7800       126
    33.8000       140
    33.8200       148
    33.8400       158
    33.8600       144
    33.8800       190
    33.9000       150
    33.9200       174
    33.9400       172
    33.9600       162
    33.9800       180
    34.0000       170
    34.0200       172
    34.0400       186
    34.0600       188
    34.0800       192
    34.1000       204
    34.1200       160
    34.1400       216
    34.1600       192
    34.1800       192
    34.2000       198
    34.2200       184
    34.2400       188
    34.2600       196
    34.2800       176
    34.3000       216
    34.3200       206
    34.3400       228
    34.3600       194
    34.3800       226
    34.4000       208
    34.4200       220
    34.4400       218
    34.4600       214
    34.4800       182
    34.5000       218
    34.5200       230
    34.5400       210
    34.5600       200
    34.5800       180
    34.6000       224
    34.6200       188
    34.6400       178
    34.6600       198
    34.6800       184
    34.7000       200
    34.7200       198
    34.7400       202
    34.7600       230
    34.7800       214
    34.8000       206
    34.8200       206
    34.8400       214
    34.8600       218
    34.8800       202
    34.9000       196
    34.9200       214
    34.9400       196
    34.9600       208
    34.9800       218
    35.0000       168
    35.0200       188
    35.0400       208
    35.0600       218
    35.0800       178
    35.1000       198
    35.1200       204
    35.1400       196
    35.1600       196
    35.1800       222
    35.2000       244
    35.2200       206
    35.2400       210
    35.2600       218
    35.2800       186
    35.3000       200
    35.3200       178
    35.3400       194
    35.3600       188
    35.3800       222
    35.4000       214
    35.4200       178
    35.4400       194
    35.4600       198
    35.4800       210
    35.5000       206
    35.5200       204
    35.5400       210
    35.5600       196
    35.5800       212
    35.6000       200
    35.6200       198
    35.6400       186
    35.6600       186
    35.6800       194
    35.7000       178
    35.7200       198
    35.7400       186
    35.7600       214
    35.7800       196
    35.8000       184
    35.8200       186
    35.8400       176
    35.8600       172
    35.8800       150
    35.9000       166
    35.9200       200
    35.9400       196
    35.9600       192
    35.9800       174
    36.0000       200
    36.0200       170
    36.0400       204
    36.0600       178
    36.0800       156
    36.1000       182
    36.1200       166
    36.1400       176
    36.1600       168
    36.1800       194
    36.2000       170
    36.2200       184
    36.2400       168
    36.2600       166
    36.2800       164
    36.3000       174
    36.3200       166
    36.3400       168
    36.3600       130
    36.3800       198
    36.4000       154
    36.4200       136
    36.4400       134
    36.4600       138
    36.4800       136
    36.5000       150
    36.5200       146
    36.5400       124
    36.5600       156
    36.5800       138
    36.6000       144
    36.6200       142
    36.6400       140
    36.6600       166
    36.6800       146
    36.7000       130
    36.7200       122
    36.7400       148
    36.7600       124
    36.7800       132
    36.8000       132
    36.8200       142
    36.8400       136
    36.8600       122
    36.8800       136
    36.9000       134
    36.9200       136
    36.9400       122
    36.9600       116
    36.9800       126
    37.0000       122
    37.0200       124
    37.0400       134
    37.0600       126
    37.0800       138
    37.1000       110
    37.1200       120
    37.1400       126
    37.1600       116
    37.1800       106
    37.2000       110
    37.2200       102
    37.2400       138
    37.2600       134
    37.2800       126
    37.3000       138
    37.3200       120
    37.3400       116
    37.3600       128
    37.3800       118
    37.4000       140
    37.4200       126
    37.4400       106
    37.4600       100
    37.4800       116
    37.5000       130
    37.5200       120
    37.5400       130
    37.5600       140
    37.5800       134
    37.6000       128
    37.6200       134
    37.6400       116
    37.6600       132
    37.6800       144
    37.7000       128
    37.7200       124
    37.7400       114
    37.7600        90
    37.7800       114
    37.8000       116
    37.8200       114
    37.8400       108
    37.8600       106
    37.8800       122
    37.9000       114
    37.9200       136
    37.9400       118
    37.9600       122
    37.9800       104
    38.0000        96
    38.0200       110
    38.0400       114
    38.0600       108
    38.0800       112
    38.1000       132
    38.1200       112
    38.1400       128
    38.1600       128
    38.1800       116
    38.2000       110
    38.2200       104
    38.2400       128
    38.2600       114
    38.2800       146
    38.3000       110
    38.3200       114
    38.3400       138
    38.3600       104
    38.3800       114
    38.4000       108
    38.4200       104
    38.4400       128
    38.4600       116
    38.4800       108
    38.5000       104
    38.5200       128
    38.5400       104
    38.5600       132
    38.5800        90
    38.6000       122
    38.6200       112
    38.6400       122
    38.6600       108
    38.6800       116
    38.7000       130
    38.7200       104
    38.7400       110
    38.7600       118
    38.7800       104
    38.8000       126
    38.8200        98
    38.8400       114
    38.8600       104
    38.8800       100
    38.9000       122
    38.9200       126
    38.9400       128
    38.9600       100
    38.9800       128
    39.0000       134
    39.0200       140
    39.0400       130
    39.0600       126
    39.0800       106
    39.1000       114
    39.1200       102
    39.1400       136
    39.1600       114
    39.1800        94
    39.2000       106
    39.2200       110
    39.2400       108
    39.2600       116
    39.2800       128
    39.3000       122
    39.3200       118
    39.3400       110
    39.3600       104
    39.3800       108
    39.4000       104
    39.4200       120
    39.4400       120
    39.4600       118
    39.4800       112
    39.5000       100
    39.5200       108
    39.5400        82
    39.5600       130
    39.5800       108
    39.6000       120
    39.6200        88
    39.6400       110
    39.6600        94
    39.6800       108
    39.7000       116
    39.7200       130
    39.7400       106
    39.7600       106
    39.7800       104
    39.8000       104
    39.8200        90
    39.8400       108
    39.8600        96
    39.8800       100
    39.9000       102
    39.9200        90
    39.9400       100
    39.9600        82
    39.9800       108
    40.0000        96
    40.0200       100
    40.0400        82
    40.0600        84
    40.0800        98
    40.1000       104
    40.1200        90
    40.1400        88
    40.1600        90
    40.1800        94
    40.2000       102
    40.2200        80
    40.2400        86
    40.2600        94
    40.2800       106
    40.3000        74
    40.3200        98
    40.3400       100
    40.3600        80
    40.3800        92
    40.4000        94
    40.4200        90
    40.4400        90
    40.4600        88
    40.4800        86
    40.5000        80
    40.5200        76
    40.5400        88
    40.5600        66
    40.5800        96
    40.6000        74
    40.6200        80
    40.6400        86
    40.6600        86
    40.6800        70
    40.7000        98
    40.7200        84
    40.7400        88
    40.7600        98
    40.7800        92
    40.8000        80
    40.8200        90
    40.8400        92
    40.8600        82
    40.8800        94
    40.9000       104
    40.9200        76
    40.9400       100
    40.9600        80
    40.9800       104
    41.0000        84
    41.0200        92
    41.0400        68
    41.0600        96
    41.0800        80
    41.1000        68
    41.1200        80
    41.1400        84
    41.1600        84
    41.1800        84
    41.2000        74
    41.2200        80
    41.2400        86
    41.2600        76
    41.2800        76
    41.3000        84
    41.3200       102
    41.3400        98
    41.3600        94
    41.3800        84
    41.4000        86
    41.4200        82
    41.4400        84
    41.4600        84
    41.4800        74
    41.5000        92
    41.5200        92
    41.5400        90
    41.5600        92
    41.5800       102
    41.6000        98
    41.6200        82
    41.6400        98
    41.6600       102
    41.6800       108
    41.7000       112
    41.7200        94
    41.7400       112
    41.7600        88
    41.7800       114
    41.8000       118
    41.8200       102
    41.8400       102
    41.8600        88
    41.8800       104
    41.9000       102
    41.9200        90
    41.9400        92
    41.9600        94
    41.9800        96
    42.0000        72
    42.0200        78
    42.0400        84
    42.0600       118
    42.0800        84
    42.1000        94
    42.1200        96
    42.1400       112
    42.1600        90
    42.1800        88
    42.2000       130
    42.2200       122
    42.2400       146
    42.2600       138
    42.2800       116
    42.3000       116
    42.3200       118
    42.3400       102
    42.3600       120
    42.3800        90
    42.4000        86
    42.4200       102
    42.4400        76
    42.4600        72
    42.4800        76
    42.5000        68
    42.5200        92
    42.5400        76
    42.5600        70
    42.5800        66
    42.6000        66
    42.6200        62
    42.6400        88
    42.6600        68
    42.6800        84
    42.7000        84
    42.7200        86
    42.7400        90
    42.7600        92
    42.7800        78
    42.8000        72
    42.8200        86
    42.8400        68
    42.8600        80
    42.8800        66
    42.9000        70
    42.9200        82
    42.9400        72
    42.9600        80
    42.9800        56
    43.0000        74
    43.0200        70
    43.0400        70
    43.0600        68
    43.0800        60
    43.1000        74
    43.1200        70
    43.1400        56
    43.1600        62
    43.1800        74
    43.2000        84
    43.2200        70
    43.2400        56
    43.2600        64
    43.2800        82
    43.3000        68
    43.3200        48
    43.3400        76
    43.3600        66
    43.3800        74
    43.4000        72
    43.4200        56
    43.4400        72
    43.4600        56
    43.4800        84
    43.5000        70
    43.5200        62
    43.5400        72
    43.5600        64
    43.5800        64
    43.6000        78
    43.6200        74
    43.6400        70
    43.6600        74
    43.6800        72
    43.7000        86
    43.7200        82
    43.7400        88
    43.7600        74
    43.7800        70
    43.8000        60
    43.8200        76
    43.8400        76
    43.8600        90
    43.8800        58
    43.9000        74
    43.9200        62
    43.9400        56
    43.9600        74
    43.9800        68
    44.0000        78
    44.0200        80
    44.0400        74
    44.0600        72
    44.0800        68
    44.1000        92
    44.1200        62
    44.1400       100
    44.1600        88
    44.1800        90
    44.2000        80
    44.2200        82
    44.2400        98
    44.2600       106
    44.2800        94
    44.3000        84
    44.3200       106
    44.3400        90
    44.3600        56
    44.3800        96
    44.4000        84
    44.4200        80
    44.4400        88
    44.4600        66
    44.4800        90
    44.5000        84
    44.5200        92
    44.5400        80
    44.5600        88
    44.5800        84
    44.6000        82
    44.6200        96
    44.6400       104
    44.6600        96
    44.6800        96
    44.7000        84
    44.7200        90
    44.7400        84
    44.7600        82
    44.7800        82
    44.8000        78
    44.8200       106
    44.8400        84
    44.8600        86
    44.8800       102
    44.9000       108
    44.9200       102
    44.9400        88
    44.9600        96
    44.9800        82
    45.0000        96
    45.0200        96
    45.0400        94
    45.0600        86
    45.0800        90
    45.1000        90
    45.1200        92
    45.1400       100
    45.1600        78
    45.1800        88
    45.2000        90
    45.2200        86
    45.2400        94
    45.2600        90
    45.2800       116
    45.3000       140
    45.3200       122
    45.3400       138
    45.3600       124
    45.3800       114
    45.4000       124
    45.4200       104
    45.4400       110
    45.4600       112
    45.4800        80
    45.5000        82
    45.5200        96
    45.5400        90
    45.5600        84
    45.5800        80
    45.6000        72
    45.6200        76
    45.6400        86
    45.6600        60
    45.6800        78
    45.7000        82
    45.7200        72
    45.7400        60
    45.7600        72
    45.7800        44
    45.8000        52
    45.8200        54
    45.8400        80
    45.8600        62
    45.8800        66
    45.9000        74
    45.9200        62
    45.9400        56
    45.9600        70
    45.9800        74
    46.0000        72
    46.0200        58
    46.0400        60
    46.0600        64
    46.0800        60
    46.1000        56
    46.1200        54
    46.1400        52
    46.1600        66
    46.1800        50
    46.2000        48
    46.2200        56
    46.2400        50
    46.2600        68
    46.2800        68
    46.3000        66
    46.3200        62
    46.3400        68
    46.3600        30
    46.3800        68
    46.4000        42
    46.4200        60
    46.4400        52
    46.4600        70
    46.4800        60
    46.5000        62
    46.5200        52
    46.5400        52
    46.5600        58
    46.5800        56
    46.6000        52
    46.6200        46
    46.6400        48
    46.6600        50
    46.6800        58
    46.7000        56
    46.7200        52
    46.7400        60
    46.7600        58
    46.7800        62
    46.8000        64
    46.8200        50
    46.8400        52
    46.8600        46
    46.8800        56
    46.9000        62
    46.9200        56
    46.9400        44
    46.9600        46
    46.9800        52
    47.0000        48
    47.0200        54
    47.0400        58
    47.0600        46
    47.0800        44
    47.1000        56
    47.1200        50
    47.1400        50
    47.1600        38
    47.1800        60
    47.2000        46
    47.2200        40
    47.2400        56
    47.2600        44
    47.2800        48
    47.3000        34
    47.3200        54
    47.3400        56
    47.3600        52
    47.3800        44
    47.4000        48
    47.4200        40
    47.4400        66
    47.4600        56
    47.4800        40
    47.5000        44
    47.5200        50
    47.5400        44
    47.5600        32
    47.5800        54
    47.6000        38
    47.6200        54
    47.6400        44
    47.6600        42
    47.6800        42
    47.7000        40
    47.7200        62
    47.7400        54
    47.7600        50
    47.7800        56
    47.8000        48
    47.8200        52
    47.8400        78
    47.8600        64
    47.8800        78
    47.9000        78
    47.9200        80
    47.9400        54
    47.9600        62
    47.9800        70
    48.0000        50
    48.0200        42
    48.0400        64
    48.0600        60
    48.0800        48
    48.1000        60
    48.1200        52
    48.1400        56
    48.1600        32
    48.1800        50
    48.2000        36
    48.2200        52
    48.2400        28
    48.2600        54
    48.2800        46
    48.3000        64
    48.3200        52
    48.3400        54
    48.3600        50
    48.3800        46
    48.4000        54
    48.4200        48
    48.4400        50
    48.4600        40
    48.4800        48
    48.5000        48
    48.5200        38
    48.5400        48
    48.5600        56
    48.5800        60
    48.6000        54
    48.6200        58
    48.6400        48
    48.6600        46
    48.6800        40
    48.7000        46
    48.7200        42
    48.7400        48
    48.7600        54
    48.7800        54
    48.8000        52
    48.8200        48
    48.8400        42
    48.8600        52
    48.8800        36
    48.9000        50
    48.9200        54
    48.9400        42
    48.9600        52
    48.9800        42
    49.0000        44
    49.0200        44
    49.0400        40
    49.0600        52
    49.0800        34
    49.1000        38
    49.1200        42
    49.1400        44
    49.1600        52
    49.1800        50
    49.2000        50
    49.2200        46
    49.2400        58
    49.2600        50
    49.2800        56
    49.3000        50
    49.3200        44
    49.3400        52
    49.3600        52
    49.3800        56
    49.4000        56
    49.4200        32
    49.4400        54
    49.4600        46
    49.4800        42
    49.5000        48
    49.5200        38
    49.5400        52
    49.5600        46
    49.5800        40
    49.6000        66
    49.6200        42
    49.6400        40
    49.6600        54
    49.6800        46
    49.7000        38
    49.7200        48
    49.7400        58
    49.7600        40
    49.7800        50
    49.8000        50
    49.8200        36
    49.8400        38
    49.8600        62
    49.8800        50
    49.9000        48
    49.9200        62
    49.9400        52
    49.9600        50
    49.9800        50
    50.0000        44
    50.0200        64
    50.0400        56
    50.0600        66
    50.0800        70
    50.1000        58
    50.1200        54
    50.1400        72
    50.1600        66
    50.1800        58
    50.2000        68
    50.2200        52
    50.2400        44
    50.2600        60
    50.2800        78
    50.3000        36
    50.3200        50
    50.3400        52
    50.3600        40
    50.3800        52
    50.4000        46
    50.4200        56
    50.4400        58
    50.4600        58
    50.4800        40
    50.5000        48
    50.5200        64
    50.5400        56
    50.5600        36
    50.5800        54
    50.6000        54
    50.6200        40
    50.6400        56
    50.6600        50
    50.6800        48
    50.7000        42
    50.7200        38
    50.7400        40
    50.7600        40
    50.7800        46
    50.8000        38
    50.8200        50
    50.8400        54
    50.8600        36
    50.8800        40
    50.9000        36
    50.9200        62
    50.9400        44
    50.9600        46
    50.9800        50
    51.0000        50
    51.0200        52
    51.0400        38
    51.0600        50
    51.0800        52
    51.1000        46
    51.1200        46
    51.1400        54
    51.1600        42
    51.1800        42
    51.2000        48
    51.2200        58
    51.2400        48
    51.2600        58
    51.2800        40
    51.3000        54
    51.3200        44
    51.3400        52
    51.3600        56
    51.3800        62
    51.4000        44
    51.4200        54
    51.4400        44
    51.4600        52
    51.4800        54
    51.5000        52
    51.5200        44
    51.5400        38
    51.5600        62
    51.5800        54
    51.6000        58
    51.6200        54
    51.6400        52
    51.6600        64
    51.6800        54
    51.7000        62
    51.7200        56
    51.7400        42
    51.7600        42
    51.7800        58
    51.8000        50
    51.8200        50
    51.8400        58
    51.8600        64
    51.8800        70
    51.9000        68
    51.9200        78
    51.9400        72
    51.9600        76
    51.9800        90
    52.0000        88
    52.0200        96
    52.0400        76
    52.0600        92
    52.0800        68
    52.1000        78
    52.1200        76
    52.1400        78
    52.1600        98
    52.1800        86
    52.2000        70
    52.2200        84
    52.2400        78
    52.2600        80
    52.2800        70
    52.3000        52
    52.3200        76
    52.3400        72
    52.3600        82
    52.3800        92
    52.4000        78
    52.4200        84
    52.4400        86
    52.4600        76
    52.4800        92
    52.5000        78
    52.5200        90
    52.5400        82
    52.5600       104
    52.5800       102
    52.6000        96
    52.6200       118
    52.6400        90
    52.6600        98
    52.6800        78
    52.7000        90
    52.7200       104
    52.7400        86
    52.7600        84
    52.7800       116
    52.8000        98
    52.8200        86
    52.8400        70
    52.8600        72
    52.8800        86
    52.9000        86
    52.9200        86
    52.9400        84
    52.9600        92
    52.9800        80
    53.0000        82
    53.0200        78
    53.0400        84
    53.0600        78
    53.0800        90
    53.1000        90
    53.1200        82
    53.1400        82
    53.1600        82
    53.1800        98
    53.2000        86
    53.2200        78
    53.2400        82
    53.2600        76
    53.2800        84
    53.3000        70
    53.3200        82
    53.3400        80
    53.3600        76
    53.3800        82
    53.4000        64
    53.4200        72
    53.4400        88
    53.4600        74
    53.4800        72
    53.5000        82
    53.5200        80
    53.5400        62
    53.5600        78
    53.5800        56
    53.6000        58
    53.6200        78
    53.6400        88
    53.6600        70
    53.6800        88
    53.7000        92
    53.7200        70
    53.7400        88
    53.7600        80
    53.7800        82
    53.8000        64
    53.8200        64
    53.8400        60
    53.8600        82
    53.8800        64
    53.9000        70
    53.9200        80
    53.9400        76
    53.9600        76
    53.9800        62
    54.0000        86
    54.0200        72
    54.0400        80
    54.0600        72
    54.0800        82
    54.1000        84
    54.1200        82
    54.1400        82
    54.1600        54
    54.1800        66
    54.2000        78
    54.2200        84
    54.2400        84
    54.2600       102
    54.2800        82
    54.3000        68
    54.3200        64
    54.3400        92
    54.3600        84
    54.3800        56
    54.4000        70
    54.4200        68
    54.4400        80
    54.4600        82
    54.4800        80
    54.5000        54
    54.5200        68
    54.5400        74
    54.5600        70
    54.5800        58
    54.6000        70
    54.6200        80
    54.6400        62
    54.6600        66
    54.6800        78
    54.7000        70
    54.7200        66
    54.7400        70
    54.7600        78
    54.7800        54
    54.8000        86
    54.8200        90
    54.8400        88
    54.8600        66
    54.8800        72
    54.9000        86
    54.9200        74
    54.9400        58
    54.9600        84
    54.9800        82
    55.0000        72
    55.0200        76
    55.0400        72
    55.0600        80
    55.0800        70
    55.1000        84
    55.1200        68
    55.1400        74
    55.1600        92
    55.1800        78
    55.2000        70
    55.2200        72
    55.2400        74
    55.2600        90
    55.2800        88
    55.3000        74
    55.3200        64
    55.3400        68
    55.3600        76
    55.3800        86
    55.4000        88
    55.4200        74
    55.4400        82
    55.4600        78
    55.4800        84
    55.5000       116
    55.5200        76
    55.5400        88
    55.5600        82
    55.5800        72
    55.6000        96
    55.6200       102
    55.6400       102
    55.6600        92
    55.6800        88
    55.7000        86
    55.7200        80
    55.7400        86
    55.7600        74
    55.7800        76
    55.8000        68
    55.8200        84
    55.8400        96
    55.8600        90
    55.8800        76
    55.9000        84
    55.9200        88
    55.9400        74
    55.9600        76
    55.9800        84
    56.0000        72
    56.0200        78
    56.0400        86
    56.0600        70
    56.0800        74
    56.1000        76
    56.1200        66
    56.1400        68
    56.1600        84
    56.1800        74
    56.2000        64
    56.2200        74
    56.2400        70
    56.2600        80
    56.2800        80
    56.3000        90
    56.3200        82
    56.3400        80
    56.3600        82
    56.3800        92
    56.4000        96
    56.4200        84
    56.4400        90
    56.4600        70
    56.4800        72
    56.5000        90
    56.5200        78
    56.5400        66
    56.5600        84
    56.5800        66
    56.6000        76
    56.6200        70
    56.6400        54
    56.6600        70
    56.6800        86
    56.7000        72
    56.7200        72
    56.7400        80
    56.7600        92
    56.7800        76
    56.8000        82
    56.8200        78
    56.8400        70
    56.8600        74
    56.8800        72
    56.9000        74
    56.9200        78
    56.9400        66
    56.9600        78
    56.9800        74
    57.0000        80
    57.0200        72
    57.0400        68
    57.0600        70
    57.0800        54
    57.1000        64
    57.1200        66
    57.1400        66
    57.1600        60
    57.1800        48
    57.2000        58
    57.2200        56
    57.2400        50
    57.2600        74
    57.2800        68
    57.3000        56
    57.3200        50
    57.3400        58
    57.3600        66
    57.3800        54
    57.4000        70
    57.4200        58
    57.4400        72
    57.4600        68
    57.4800        60
    57.5000        54
    57.5200        64
    57.5400        64
    57.5600        60
    57.5800        60
    57.6000        70
    57.6200        54
    57.6400        72
    57.6600        78
    57.6800        82
    57.7000        58
    57.7200        58
    57.7400        68
    57.7600        48
    57.7800        66
    57.8000        76
    57.8200        56
    57.8400        64
    57.8600        72
    57.8800        64
    57.9000        74
    57.9200        66
    57.9400        86
    57.9600        84
    57.9800        94
    58.0000        74
    58.0200        78
    58.0400        86
    58.0600        82
    58.0800        66
    58.1000        88
    58.1200        84
    58.1400        58
    58.1600        58
    58.1800        72
    58.2000        66
    58.2200        66
    58.2400        64
    58.2600        74
    58.2800        60
    58.3000        78
    58.3200        68
    58.3400        68
    58.3600        58
    58.3800        62
    58.4000        64
    58.4200        66
    58.4400        70
    58.4600        68
    58.4800        58
    58.5000        56
    58.5200        62
    58.5400        72
    58.5600        60
    58.5800        54
    58.6000        70
    58.6200        72
    58.6400        70
    58.6600        66
    58.6800        58
    58.7000        64
    58.7200        64
    58.7400        46
    58.7600        62
    58.7800        68
    58.8000        78
    58.8200        62
    58.8400        74
    58.8600        58
    58.8800        54
    58.9000        70
    58.9200        68
    58.9400        70
    58.9600        70
    58.9800        66
    59.0000        66
    59.0200        58
    59.0400        56
    59.0600        72
    59.0800        56
    59.1000        72
    59.1200        78
    59.1400        80
    59.1600        68
    59.1800        74
    59.2000        62
    59.2200        70
    59.2400        68
    59.2600        68
    59.2800        76
    59.3000        56
    59.3200        80
    59.3400        66
    59.3600        72
    59.3800        56
    59.4000        66
    59.4200        60
    59.4400        82
    59.4600        62
    59.4800        86
    59.5000        68
    59.5200        64
    59.5400        90
    59.5600        76
    59.5800        66
    59.6000        86
    59.6200        70
    59.6400        56
    59.6600        80
    59.6800        58
    59.7000        50
    59.7200        44
    59.7400        86
    59.7600        90
    59.7800        82
    59.8000        82
    59.8200        64
    59.8400       104
    59.8600        80
    59.8800        74
    59.9000        92
    59.9200        76
    59.9400       110
    59.9600       112
    59.9800       126
    60.0000       110
    60.0200       138
    60.0400       146
    60.0600       168
    60.0800       168
    60.1000       176
    60.1200       200
    60.1400       236
    60.1600       240
    60.1800       262
    60.2000       252
    60.2200       264
    60.2400       268
    60.2600       250
    60.2800       270
    60.3000       272
    60.3200       308
    60.3400       278
    60.3600       278
    60.3800       262
    60.4000       288
    60.4200       270
    60.4400       260
    60.4600       230
    60.4800       230
    60.5000       238
    60.5200       226
    60.5400       232
    60.5600       204
    60.5800       182
    60.6000       190
    60.6200       204
    60.6400       204
    60.6600       148
    60.6800       178
    60.7000       174
    60.7200       162
    60.7400       162
    60.7600       158
    60.7800       138
    60.8000       138
    60.8200       124
    60.8400       134
    60.8600       134
    60.8800       150
    60.9000       102
    60.9200       120
    60.9400       108
    60.9600       114
    60.9800       110
    61.0000       114
    61.0200       140
    61.0400       116
    61.0600        98
    61.0800       112
    61.1000       104
    61.1200        94
    61.1400        96
    61.1600       106
    61.1800        94
    61.2000        92
    61.2200        78
    61.2400        82
    61.2600        78
    61.2800        84
    61.3000        86
    61.3200        92
    61.3400        80
    61.3600        96
    61.3800        80
    61.4000        92
    61.4200       106
    61.4400        92
    61.4600        74
    61.4800        86
    61.5000       114
    61.5200        98
    61.5400       102
    61.5600        98
    61.5800        78
    61.6000        80
    61.6200        72
    61.6400        88
    61.6600       104
    61.6800        78
    61.7000        84
    61.7200        96
    61.7400        68
    61.7600        76
    61.7800        88
    61.8000        74
    61.8200        84
    61.8400        86
    61.8600        78
    61.8800        72
    61.9000        78
    61.9200        84
    61.9400        80
    61.9600        70
    61.9800        72
    62.0000        54
    62.0200        50
    62.0400        56
    62.0600        66
    62.0800        64
    62.1000        60
    62.1200        64
    62.1400        50
    62.1600        60
    62.1800        54
    62.2000        64
    62.2200        58
    62.2400        64
    62.2600        68
    62.2800        60
    62.3000        54
    62.3200        60
    62.3400        66
    62.3600        56
    62.3800        62
    62.4000        58
    62.4200        58
    62.4400        50
    62.4600        54
    62.4800        48
    62.5000        70
    62.5200        82
    62.5400        50
    62.5600        60
    62.5800        52
    62.6000        50
    62.6200        62
    62.6400        58
    62.6600        64
    62.6800        76
    62.7000        62
    62.7200        70
    62.7400        74
    62.7600        56
    62.7800        52
    62.8000        58
    62.8200        62
    62.8400        56
    62.8600        50
    62.8800        62
    62.9000        68
    62.9200        60
    62.9400        60
    62.9600        62
    62.9800        64
    63.0000        68
    63.0200        62
    63.0400        64
    63.0600        60
    63.0800        62
    63.1000        70
    63.1200        48
    63.1400        46
    63.1600        72
    63.1800        58
    63.2000        42
    63.2200        56
    63.2400        58
    63.2600        62
    63.2800        60
    63.3000        50
    63.3200        62
    63.3400        66
    63.3600        66
    63.3800        54
    63.4000        40
    63.4200        50
    63.4400        52
    63.4600        54
    63.4800        48
    63.5000        66
    63.5200        78
    63.5400        50
    63.5600        68
    63.5800        54
    63.6000        56
    63.6200        52
    63.6400        54
    63.6600        54
    63.6800        58
    63.7000        56
    63.7200        50
    63.7400        62
    63.7600        62
    63.7800        58
    63.8000        46
    63.8200        38
    63.8400        70
    63.8600        76
    63.8800        52
    63.9000        48
    63.9200        52
    63.9400        62
    63.9600        56
    63.9800        58
    64.0000        64
    64.0200        62
    64.0400        64
    64.0600        54
    64.0800        60
    64.1000        72
    64.1200        56
    64.1400        58
    64.1600        56
    64.1800        52
    64.2000        56
    64.2200        70
    64.2400        68
    64.2600        68
    64.2800        52
    64.3000        72
    64.3200        62
    64.3400        72
    64.3600        58
    64.3800        66
    64.4000        64
    64.4200        48
    64.4400        56
    64.4600        66
    64.4800        72
    64.5000        62
    64.5200        78
    64.5400        66
    64.5600        86
    64.5800        82
    64.6000        84
    64.6200       102
    64.6400       120
    64.6600       112
    64.6800        90
    64.7000        96
    64.7200        84
    64.7400        68
    64.7600        64
    64.7800        68
    64.8000        92
    64.8200        82
    64.8400        76
    64.8600        76
    64.8800        72
    64.9000        58
    64.9200        72
    64.9400        66
    64.9600        56
    64.9800        38
    65.0000        64
