/////////////////////////////////////////////////////////////////////////////////
/// Profile Data Ascii Dump (XRD)                                             ///
/////////////////////////////////////////////////////////////////////////////////

  Group     : Swayze
  Data      : GDS159
  File Name : GDS159.RAW

# Profile Datafile
          comment             = Clinochlore or Sheridanite 
          date & time         = 08-04-14 07:20:35 

# Measurement Condition
    X-ray tube
          target              = Cu 
          voltage             = 40.0 (kV)
          current             = 30.0 (mA)
    Slits
          divergence slit     = 2.00000 (deg) 
          scatter slit        = 2.00000 (deg) 
          receiving slit      = 0.15000 (mm)  
    Scanning
          drive axis          = Theta-2Theta 
          scan range          =    4.000 -   65.000 
          scan mode           = Continuous Scan 
          scan speed          =   2.0000 (deg/min) 
          sampling pitch      =   0.0200 (deg) 
          preset time         =   0.60 (sec) 

# Data      [ Total No. = 3051 ]
  <2Theta>   <   I   >
     4.0000       180
     4.0200       186
     4.0400       196
     4.0600       238
     4.0800       190
     4.1000       216
     4.1200       206
     4.1400       186
     4.1600       190
     4.1800       184
     4.2000       180
     4.2200       206
     4.2400       224
     4.2600       204
     4.2800       204
     4.3000       192
     4.3200       194
     4.3400       172
     4.3600       192
     4.3800       178
     4.4000       210
     4.4200       198
     4.4400       182
     4.4600       182
     4.4800       184
     4.5000       206
     4.5200       160
     4.5400       194
     4.5600       174
     4.5800       186
     4.6000       154
     4.6200       160
     4.6400       172
     4.6600       202
     4.6800       198
     4.7000       178
     4.7200       166
     4.7400       190
     4.7600       168
     4.7800       182
     4.8000       170
     4.8200       168
     4.8400       182
     4.8600       168
     4.8800       170
     4.9000       192
     4.9200       158
     4.9400       220
     4.9600       176
     4.9800       182
     5.0000       172
     5.0200       166
     5.0400       164
     5.0600       202
     5.0800       162
     5.1000       156
     5.1200       166
     5.1400       176
     5.1600       164
     5.1800       196
     5.2000       172
     5.2200       210
     5.2400       170
     5.2600       236
     5.2800       212
     5.3000       196
     5.3200       196
     5.3400       182
     5.3600       200
     5.3800       168
     5.4000       216
     5.4200       212
     5.4400       186
     5.4600       204
     5.4800       202
     5.5000       192
     5.5200       204
     5.5400       214
     5.5600       240
     5.5800       228
     5.6000       222
     5.6200       230
     5.6400       206
     5.6600       212
     5.6800       218
     5.7000       224
     5.7200       212
     5.7400       212
     5.7600       290
     5.7800       244
     5.8000       266
     5.8200       266
     5.8400       282
     5.8600       310
     5.8800       304
     5.9000       314
     5.9200       340
     5.9400       376
     5.9600       342
     5.9800       368
     6.0000       396
     6.0200       442
     6.0400       428
     6.0600       502
     6.0800       550
     6.1000       602
     6.1200       552
     6.1400       584
     6.1600       550
     6.1800       490
     6.2000       402
     6.2200       360
     6.2400       316
     6.2600       286
     6.2800       242
     6.3000       226
     6.3200       230
     6.3400       198
     6.3600       220
     6.3800       166
     6.4000       184
     6.4200       194
     6.4400       180
     6.4600       142
     6.4800       180
     6.5000       156
     6.5200       170
     6.5400       174
     6.5600       150
     6.5800       140
     6.6000       152
     6.6200       174
     6.6400       130
     6.6600       148
     6.6800       140
     6.7000       162
     6.7200       146
     6.7400       148
     6.7600       142
     6.7800       154
     6.8000       134
     6.8200       144
     6.8400       158
     6.8600       138
     6.8800       140
     6.9000       116
     6.9200       114
     6.9400       136
     6.9600       148
     6.9800       118
     7.0000       144
     7.0200       118
     7.0400       132
     7.0600       122
     7.0800       126
     7.1000       120
     7.1200       156
     7.1400       156
     7.1600       138
     7.1800       138
     7.2000       126
     7.2200       148
     7.2400       120
     7.2600       128
     7.2800       132
     7.3000       120
     7.3200       130
     7.3400       110
     7.3600       124
     7.3800       110
     7.4000       136
     7.4200       114
     7.4400       130
     7.4600       122
     7.4800       122
     7.5000       124
     7.5200       130
     7.5400       134
     7.5600       110
     7.5800       132
     7.6000       120
     7.6200       132
     7.6400       114
     7.6600       110
     7.6800       130
     7.7000       136
     7.7200       140
     7.7400       108
     7.7600       106
     7.7800       128
     7.8000       142
     7.8200       120
     7.8400       124
     7.8600       126
     7.8800       102
     7.9000       120
     7.9200       118
     7.9400       130
     7.9600       102
     7.9800       136
     8.0000       112
     8.0200       122
     8.0400       136
     8.0600       124
     8.0800       138
     8.1000       114
     8.1200       116
     8.1400       162
     8.1600       134
     8.1800       112
     8.2000       110
     8.2200       116
     8.2400       108
     8.2600       124
     8.2800       114
     8.3000       128
     8.3200       134
     8.3400       120
     8.3600       102
     8.3800       124
     8.4000       130
     8.4200       116
     8.4400       116
     8.4600       126
     8.4800       152
     8.5000       108
     8.5200       106
     8.5400       118
     8.5600       142
     8.5800       138
     8.6000       128
     8.6200       120
     8.6400       132
     8.6600       104
     8.6800       130
     8.7000       116
     8.7200       126
     8.7400       120
     8.7600       112
     8.7800       128
     8.8000       110
     8.8200       106
     8.8400       132
     8.8600       132
     8.8800       122
     8.9000       108
     8.9200       136
     8.9400       120
     8.9600       124
     8.9800       122
     9.0000       134
     9.0200       142
     9.0400       128
     9.0600       120
     9.0800       124
     9.1000       144
     9.1200       142
     9.1400       126
     9.1600       128
     9.1800       132
     9.2000       126
     9.2200       136
     9.2400       148
     9.2600       146
     9.2800       160
     9.3000       152
     9.3200       148
     9.3400       140
     9.3600       170
     9.3800       170
     9.4000       128
     9.4200       126
     9.4400       122
     9.4600       148
     9.4800       122
     9.5000       116
     9.5200       132
     9.5400       134
     9.5600       124
     9.5800       128
     9.6000       112
     9.6200       126
     9.6400       126
     9.6600       122
     9.6800       120
     9.7000       136
     9.7200       116
     9.7400       114
     9.7600       120
     9.7800       106
     9.8000       116
     9.8200        96
     9.8400       112
     9.8600       134
     9.8800       110
     9.9000       100
     9.9200       134
     9.9400       108
     9.9600       102
     9.9800       100
    10.0000        94
    10.0200       104
    10.0400       112
    10.0600       116
    10.0800       114
    10.1000       118
    10.1200       104
    10.1400       136
    10.1600        98
    10.1800        88
    10.2000       122
    10.2200       118
    10.2400       108
    10.2600        94
    10.2800       126
    10.3000       102
    10.3200       104
    10.3400       102
    10.3600       112
    10.3800       100
    10.4000       104
    10.4200       116
    10.4400        96
    10.4600       112
    10.4800        98
    10.5000        98
    10.5200       114
    10.5400       102
    10.5600       120
    10.5800       102
    10.6000       112
    10.6200       138
    10.6400       104
    10.6600       116
    10.6800        96
    10.7000       120
    10.7200       116
    10.7400        96
    10.7600       102
    10.7800       122
    10.8000       106
    10.8200        98
    10.8400        98
    10.8600       102
    10.8800       118
    10.9000       100
    10.9200       102
    10.9400       110
    10.9600       116
    10.9800        82
    11.0000       104
    11.0200       100
    11.0400       110
    11.0600       100
    11.0800       112
    11.1000       108
    11.1200        98
    11.1400       118
    11.1600       106
    11.1800       108
    11.2000       104
    11.2200       110
    11.2400       100
    11.2600       128
    11.2800       102
    11.3000       122
    11.3200       104
    11.3400       102
    11.3600       100
    11.3800       110
    11.4000        90
    11.4200       108
    11.4400        84
    11.4600       124
    11.4800       112
    11.5000       116
    11.5200       104
    11.5400       128
    11.5600       104
    11.5800       118
    11.6000       128
    11.6200       134
    11.6400       138
    11.6600       124
    11.6800       114
    11.7000       122
    11.7200       150
    11.7400       160
    11.7600       148
    11.7800       156
    11.8000       184
    11.8200       168
    11.8400       178
    11.8600       160
    11.8800       178
    11.9000       184
    11.9200       192
    11.9400       244
    11.9600       244
    11.9800       260
    12.0000       258
    12.0200       272
    12.0400       318
    12.0600       334
    12.0800       364
    12.1000       390
    12.1200       406
    12.1400       474
    12.1600       498
    12.1800       562
    12.2000       590
    12.2200       708
    12.2400       716
    12.2600       766
    12.2800       878
    12.3000       900
    12.3200       924
    12.3400       844
    12.3600       816
    12.3800       784
    12.4000       626
    12.4200       480
    12.4400       444
    12.4600       336
    12.4800       284
    12.5000       248
    12.5200       226
    12.5400       216
    12.5600       188
    12.5800       154
    12.6000       138
    12.6200       134
    12.6400       134
    12.6600       140
    12.6800       106
    12.7000       110
    12.7200       122
    12.7400        88
    12.7600        94
    12.7800        98
    12.8000        84
    12.8200        84
    12.8400        82
    12.8600        88
    12.8800        74
    12.9000        92
    12.9200        88
    12.9400        86
    12.9600        82
    12.9800        74
    13.0000        74
    13.0200        58
    13.0400        96
    13.0600        80
    13.0800        74
    13.1000        72
    13.1200        58
    13.1400        86
    13.1600        70
    13.1800        68
    13.2000        70
    13.2200        70
    13.2400        74
    13.2600        76
    13.2800        76
    13.3000        76
    13.3200        68
    13.3400        72
    13.3600        74
    13.3800        74
    13.4000        64
    13.4200        78
    13.4400        68
    13.4600        86
    13.4800        68
    13.5000        64
    13.5200        68
    13.5400        74
    13.5600        68
    13.5800        44
    13.6000        84
    13.6200        68
    13.6400        64
    13.6600        76
    13.6800        80
    13.7000        88
    13.7200        60
    13.7400        54
    13.7600        72
    13.7800        68
    13.8000        98
    13.8200        64
    13.8400        66
    13.8600        68
    13.8800        58
    13.9000        76
    13.9200        64
    13.9400        72
    13.9600        58
    13.9800        54
    14.0000        84
    14.0200        76
    14.0400        70
    14.0600        46
    14.0800        78
    14.1000        60
    14.1200        56
    14.1400        46
    14.1600        50
    14.1800        54
    14.2000        72
    14.2200        72
    14.2400        48
    14.2600        52
    14.2800        60
    14.3000        54
    14.3200        54
    14.3400        78
    14.3600        58
    14.3800        72
    14.4000        60
    14.4200        68
    14.4400        68
    14.4600        62
    14.4800        68
    14.5000        64
    14.5200        70
    14.5400        72
    14.5600        72
    14.5800        62
    14.6000        62
    14.6200        58
    14.6400        78
    14.6600        62
    14.6800        60
    14.7000        60
    14.7200        66
    14.7400        86
    14.7600        66
    14.7800        70
    14.8000        56
    14.8200        64
    14.8400        62
    14.8600        70
    14.8800        48
    14.9000        64
    14.9200        62
    14.9400        62
    14.9600        62
    14.9800        64
    15.0000        60
    15.0200        80
    15.0400        60
    15.0600        74
    15.0800        72
    15.1000        62
    15.1200        52
    15.1400        60
    15.1600        58
    15.1800        76
    15.2000        50
    15.2200        64
    15.2400        68
    15.2600        64
    15.2800        52
    15.3000        72
    15.3200        64
    15.3400        68
    15.3600        52
    15.3800        64
    15.4000        44
    15.4200        66
    15.4400        52
    15.4600        68
    15.4800        62
    15.5000        72
    15.5200        66
    15.5400        34
    15.5600        58
    15.5800        58
    15.6000        58
    15.6200        54
    15.6400        78
    15.6600        68
    15.6800        70
    15.7000        70
    15.7200        56
    15.7400        48
    15.7600        72
    15.7800        66
    15.8000        58
    15.8200        56
    15.8400        60
    15.8600        64
    15.8800        72
    15.9000        74
    15.9200        52
    15.9400        66
    15.9600        64
    15.9800        60
    16.0000        62
    16.0200        72
    16.0400        58
    16.0600        46
    16.0800        58
    16.1000        64
    16.1200        62
    16.1400        54
    16.1600        54
    16.1800        62
    16.2000        54
    16.2200        64
    16.2400        62
    16.2600        64
    16.2800        70
    16.3000        66
    16.3200        70
    16.3400        70
    16.3600        54
    16.3800        70
    16.4000        64
    16.4200        60
    16.4400        62
    16.4600        66
    16.4800        66
    16.5000        66
    16.5200        76
    16.5400        64
    16.5600        68
    16.5800        68
    16.6000        64
    16.6200        52
    16.6400        40
    16.6600        74
    16.6800        70
    16.7000        60
    16.7200        64
    16.7400        68
    16.7600        68
    16.7800        72
    16.8000        62
    16.8200        64
    16.8400        68
    16.8600        66
    16.8800        58
    16.9000        52
    16.9200        64
    16.9400        54
    16.9600        70
    16.9800        58
    17.0000        56
    17.0200        58
    17.0400        46
    17.0600        48
    17.0800        62
    17.1000        66
    17.1200        74
    17.1400        66
    17.1600        72
    17.1800        72
    17.2000        76
    17.2200        60
    17.2400        64
    17.2600        60
    17.2800        60
    17.3000        74
    17.3200        66
    17.3400        56
    17.3600        84
    17.3800        68
    17.4000        80
    17.4200        54
    17.4400        80
    17.4600        68
    17.4800        60
    17.5000        58
    17.5200        70
    17.5400        60
    17.5600        84
    17.5800        68
    17.6000        78
    17.6200        64
    17.6400        84
    17.6600        74
    17.6800        66
    17.7000        92
    17.7200        86
    17.7400        72
    17.7600        66
    17.7800        72
    17.8000        72
    17.8200        86
    17.8400        80
    17.8600       104
    17.8800       104
    17.9000       122
    17.9200       104
    17.9400       128
    17.9600       110
    17.9800        90
    18.0000       118
    18.0200       122
    18.0400       126
    18.0600       106
    18.0800       128
    18.1000       124
    18.1200       138
    18.1400       158
    18.1600       150
    18.1800       202
    18.2000       234
    18.2200       190
    18.2400       240
    18.2600       236
    18.2800       296
    18.3000       314
    18.3200       308
    18.3400       368
    18.3600       402
    18.3800       484
    18.4000       530
    18.4200       602
    18.4400       668
    18.4600       780
    18.4800       806
    18.5000       936
    18.5200      1002
    18.5400      1068
    18.5600      1136
    18.5800      1116
    18.6000       988
    18.6200       922
    18.6400       860
    18.6600       698
    18.6800       556
    18.7000       502
    18.7200       448
    18.7400       344
    18.7600       302
    18.7800       268
    18.8000       236
    18.8200       214
    18.8400       198
    18.8600       206
    18.8800       176
    18.9000       162
    18.9200       148
    18.9400       150
    18.9600       156
    18.9800       138
    19.0000       174
    19.0200       172
    19.0400       194
    19.0600       222
    19.0800       216
    19.1000       236
    19.1200       266
    19.1400       280
    19.1600       286
    19.1800       324
    19.2000       292
    19.2200       286
    19.2400       260
    19.2600       266
    19.2800       272
    19.3000       220
    19.3200       246
    19.3400       230
    19.3600       222
    19.3800       236
    19.4000       204
    19.4200       206
    19.4400       216
    19.4600       210
    19.4800       198
    19.5000       202
    19.5200       174
    19.5400       186
    19.5600       212
    19.5800       170
    19.6000       188
    19.6200       178
    19.6400       168
    19.6600       174
    19.6800       176
    19.7000       178
    19.7200       146
    19.7400       172
    19.7600       160
    19.7800       146
    19.8000       180
    19.8200       134
    19.8400       146
    19.8600       138
    19.8800       132
    19.9000       126
    19.9200       124
    19.9400       130
    19.9600       146
    19.9800       104
    20.0000       124
    20.0200       134
    20.0400       136
    20.0600       136
    20.0800       110
    20.1000       142
    20.1200       122
    20.1400       118
    20.1600        86
    20.1800        98
    20.2000       112
    20.2200       118
    20.2400        96
    20.2600       104
    20.2800       112
    20.3000       106
    20.3200       108
    20.3400       112
    20.3600       114
    20.3800       104
    20.4000        98
    20.4200       104
    20.4400       108
    20.4600       100
    20.4800        96
    20.5000       112
    20.5200       118
    20.5400        96
    20.5600       114
    20.5800       102
    20.6000       134
    20.6200       112
    20.6400       106
    20.6600       116
    20.6800        94
    20.7000       116
    20.7200       142
    20.7400       120
    20.7600        98
    20.7800       120
    20.8000       112
    20.8200       134
    20.8400       138
    20.8600       108
    20.8800       120
    20.9000       100
    20.9200       110
    20.9400       102
    20.9600       126
    20.9800        96
    21.0000       116
    21.0200       118
    21.0400       110
    21.0600       136
    21.0800       110
    21.1000       114
    21.1200       114
    21.1400       118
    21.1600       110
    21.1800       114
    21.2000        90
    21.2200       122
    21.2400       126
    21.2600       114
    21.2800        98
    21.3000       100
    21.3200       110
    21.3400       110
    21.3600       108
    21.3800       112
    21.4000       102
    21.4200       100
    21.4400        98
    21.4600        98
    21.4800       100
    21.5000        88
    21.5200       114
    21.5400       112
    21.5600        86
    21.5800       106
    21.6000       102
    21.6200        94
    21.6400        94
    21.6600       116
    21.6800        94
    21.7000        94
    21.7200        84
    21.7400        96
    21.7600       100
    21.7800       104
    21.8000        76
    21.8200        94
    21.8400       108
    21.8600        84
    21.8800        84
    21.9000        84
    21.9200        72
    21.9400        98
    21.9600        88
    21.9800        84
    22.0000        82
    22.0200        86
    22.0400        84
    22.0600        76
    22.0800        76
    22.1000        74
    22.1200        80
    22.1400        72
    22.1600       100
    22.1800       104
    22.2000       100
    22.2200        94
    22.2400        74
    22.2600        98
    22.2800        88
    22.3000        80
    22.3200        80
    22.3400       106
    22.3600        88
    22.3800        76
    22.4000        96
    22.4200        74
    22.4400        72
    22.4600        82
    22.4800        70
    22.5000       102
    22.5200        90
    22.5400        92
    22.5600        76
    22.5800        88
    22.6000        82
    22.6200        94
    22.6400       100
    22.6600        98
    22.6800       100
    22.7000        84
    22.7200        82
    22.7400       100
    22.7600        84
    22.7800        96
    22.8000        84
    22.8200        74
    22.8400        96
    22.8600       106
    22.8800       104
    22.9000        72
    22.9200       104
    22.9400        70
    22.9600        88
    22.9800       104
    23.0000       108
    23.0200        96
    23.0400        92
    23.0600        94
    23.0800        84
    23.1000        86
    23.1200        90
    23.1400       108
    23.1600        82
    23.1800       120
    23.2000        94
    23.2200        76
    23.2400        88
    23.2600       106
    23.2800       108
    23.3000        86
    23.3200        90
    23.3400        92
    23.3600        88
    23.3800       102
    23.4000        98
    23.4200        92
    23.4400        86
    23.4600       108
    23.4800       102
    23.5000       108
    23.5200       106
    23.5400        94
    23.5600        92
    23.5800        88
    23.6000        92
    23.6200        92
    23.6400       106
    23.6600       114
    23.6800        92
    23.7000        88
    23.7200        98
    23.7400        86
    23.7600       112
    23.7800        90
    23.8000       100
    23.8200       100
    23.8400        84
    23.8600       102
    23.8800       106
    23.9000       104
    23.9200        90
    23.9400        98
    23.9600       106
    23.9800       120
    24.0000        88
    24.0200       114
    24.0400        98
    24.0600        94
    24.0800       106
    24.1000        98
    24.1200        98
    24.1400       108
    24.1600        98
    24.1800       110
    24.2000       106
    24.2200       108
    24.2400       110
    24.2600       126
    24.2800       144
    24.3000       104
    24.3200       120
    24.3400       134
    24.3600       142
    24.3800       140
    24.4000       140
    24.4200       158
    24.4400       148
    24.4600       170
    24.4800       192
    24.5000       240
    24.5200       248
    24.5400       252
    24.5600       286
    24.5800       302
    24.6000       312
    24.6200       396
    24.6400       436
    24.6600       476
    24.6800       538
    24.7000       662
    24.7200       708
    24.7400       796
    24.7600       892
    24.7800       988
    24.8000      1098
    24.8200      1150
    24.8400      1224
    24.8600      1250
    24.8800      1270
    24.9000      1166
    24.9200      1164
    24.9400      1042
    24.9600       914
    24.9800       774
    25.0000       718
    25.0200       604
    25.0400       538
    25.0600       462
    25.0800       432
    25.1000       356
    25.1200       304
    25.1400       298
    25.1600       280
    25.1800       262
    25.2000       194
    25.2200       230
    25.2400       212
    25.2600       198
    25.2800       166
    25.3000       194
    25.3200       172
    25.3400       148
    25.3600       128
    25.3800       126
    25.4000       144
    25.4200       128
    25.4400       136
    25.4600       120
    25.4800       124
    25.5000       108
    25.5200       120
    25.5400       108
    25.5600       108
    25.5800       106
    25.6000       110
    25.6200       114
    25.6400       106
    25.6600       100
    25.6800       106
    25.7000       108
    25.7200       102
    25.7400       102
    25.7600       102
    25.7800        96
    25.8000        92
    25.8200       128
    25.8400        98
    25.8600        88
    25.8800       114
    25.9000        86
    25.9200       104
    25.9400       110
    25.9600       102
    25.9800        98
    26.0000        88
    26.0200        90
    26.0400        92
    26.0600        74
    26.0800       104
    26.1000        88
    26.1200        88
    26.1400        90
    26.1600        82
    26.1800        82
    26.2000        74
    26.2200        86
    26.2400        90
    26.2600        86
    26.2800        80
    26.3000        82
    26.3200        66
    26.3400        86
    26.3600        92
    26.3800        90
    26.4000        82
    26.4200        86
    26.4400       100
    26.4600       100
    26.4800        92
    26.5000       106
    26.5200        92
    26.5400        74
    26.5600       102
    26.5800        66
    26.6000        84
    26.6200        84
    26.6400        76
    26.6600        80
    26.6800        82
    26.7000        70
    26.7200        62
    26.7400        72
    26.7600        72
    26.7800        72
    26.8000        80
    26.8200        52
    26.8400        70
    26.8600        72
    26.8800        76
    26.9000        66
    26.9200        82
    26.9400        70
    26.9600        70
    26.9800        70
    27.0000        78
    27.0200        68
    27.0400        78
    27.0600        70
    27.0800        68
    27.1000        64
    27.1200        72
    27.1400        68
    27.1600        54
    27.1800        66
    27.2000        58
    27.2200        66
    27.2400        66
    27.2600        70
    27.2800        80
    27.3000        62
    27.3200        92
    27.3400        82
    27.3600        82
    27.3800        88
    27.4000        80
    27.4200        92
    27.4400        88
    27.4600        66
    27.4800        70
    27.5000        72
    27.5200        70
    27.5400        60
    27.5600        86
    27.5800        64
    27.6000        70
    27.6200        60
    27.6400        70
    27.6600        60
    27.6800        70
    27.7000        64
    27.7200        60
    27.7400        58
    27.7600        80
    27.7800        72
    27.8000        60
    27.8200        50
    27.8400        74
    27.8600        62
    27.8800        74
    27.9000        64
    27.9200        70
    27.9400        76
    27.9600        58
    27.9800        66
    28.0000        46
    28.0200        66
    28.0400        76
    28.0600        72
    28.0800        62
    28.1000        52
    28.1200        70
    28.1400        62
    28.1600        60
    28.1800        70
    28.2000        64
    28.2200        50
    28.2400        70
    28.2600        70
    28.2800        82
    28.3000        96
    28.3200        90
    28.3400        74
    28.3600        96
    28.3800        86
    28.4000        90
    28.4200       100
    28.4400       112
    28.4600       122
    28.4800       128
    28.5000       102
    28.5200        96
    28.5400       110
    28.5600        90
    28.5800        90
    28.6000        84
    28.6200        86
    28.6400        76
    28.6600        70
    28.6800        74
    28.7000        64
    28.7200        84
    28.7400        76
    28.7600        66
    28.7800        72
    28.8000        76
    28.8200        52
    28.8400        48
    28.8600        84
    28.8800        58
    28.9000        66
    28.9200        62
    28.9400        66
    28.9600        64
    28.9800        76
    29.0000        84
    29.0200        72
    29.0400        66
    29.0600        74
    29.0800        62
    29.1000        76
    29.1200        66
    29.1400        76
    29.1600        54
    29.1800        54
    29.2000        80
    29.2200        66
    29.2400        68
    29.2600        58
    29.2800        60
    29.3000        66
    29.3200        84
    29.3400        50
    29.3600        78
    29.3800        60
    29.4000        60
    29.4200        74
    29.4400        64
    29.4600        74
    29.4800        70
    29.5000        68
    29.5200        74
    29.5400        66
    29.5600        76
    29.5800        68
    29.6000        74
    29.6200        52
    29.6400        72
    29.6600        66
    29.6800        64
    29.7000        72
    29.7200        72
    29.7400        48
    29.7600        58
    29.7800        82
    29.8000        84
    29.8200        60
    29.8400        64
    29.8600        68
    29.8800        70
    29.9000        52
    29.9200        56
    29.9400        60
    29.9600        50
    29.9800        62
    30.0000        64
    30.0200        68
    30.0400        72
    30.0600        58
    30.0800        68
    30.1000        68
    30.1200        72
    30.1400        66
    30.1600        68
    30.1800        48
    30.2000        52
    30.2200        42
    30.2400        74
    30.2600        50
    30.2800        52
    30.3000        72
    30.3200        54
    30.3400        48
    30.3600        58
    30.3800        62
    30.4000        66
    30.4200        74
    30.4400        52
    30.4600        56
    30.4800        56
    30.5000        68
    30.5200        72
    30.5400        56
    30.5600        76
    30.5800        74
    30.6000        66
    30.6200        68
    30.6400        80
    30.6600        80
    30.6800        96
    30.7000        70
    30.7200        68
    30.7400        82
    30.7600        86
    30.7800        80
    30.8000        88
    30.8200        84
    30.8400        98
    30.8600        90
    30.8800       126
    30.9000        92
    30.9200       102
    30.9400       112
    30.9600       116
    30.9800       140
    31.0000       160
    31.0200       190
    31.0400       218
    31.0600       234
    31.0800       274
    31.1000       228
    31.1200       310
    31.1400       336
    31.1600       398
    31.1800       382
    31.2000       392
    31.2200       410
    31.2400       424
    31.2600       396
    31.2800       366
    31.3000       352
    31.3200       338
    31.3400       332
    31.3600       268
    31.3800       226
    31.4000       212
    31.4200       208
    31.4400       174
    31.4600       142
    31.4800       122
    31.5000       136
    31.5200       112
    31.5400        80
    31.5600        90
    31.5800        88
    31.6000       100
    31.6200        76
    31.6400        78
    31.6600        64
    31.6800        90
    31.7000        82
    31.7200        52
    31.7400        72
    31.7600        62
    31.7800        58
    31.8000        70
    31.8200        60
    31.8400        50
    31.8600        68
    31.8800        60
    31.9000        46
    31.9200        52
    31.9400        76
    31.9600        52
    31.9800        66
    32.0000        62
    32.0200        70
    32.0400        32
    32.0600        66
    32.0800        52
    32.1000        52
    32.1200        48
    32.1400        50
    32.1600        70
    32.1800        64
    32.2000        60
    32.2200        62
    32.2400        50
    32.2600        52
    32.2800        56
    32.3000        50
    32.3200        56
    32.3400        70
    32.3600        66
    32.3800        42
    32.4000        48
    32.4200        54
    32.4400        68
    32.4600        50
    32.4800        54
    32.5000        58
    32.5200        54
    32.5400        52
    32.5600        46
    32.5800        48
    32.6000        60
    32.6200        62
    32.6400        52
    32.6600        72
    32.6800        60
    32.7000        50
    32.7200        42
    32.7400        48
    32.7600        48
    32.7800        62
    32.8000        46
    32.8200        60
    32.8400        54
    32.8600        50
    32.8800        50
    32.9000        42
    32.9200        64
    32.9400        58
    32.9600        48
    32.9800        62
    33.0000        48
    33.0200        50
    33.0400        42
    33.0600        66
    33.0800        62
    33.1000        52
    33.1200        54
    33.1400        70
    33.1600        62
    33.1800        56
    33.2000        56
    33.2200        54
    33.2400        56
    33.2600        62
    33.2800        48
    33.3000        54
    33.3200        76
    33.3400        64
    33.3600        48
    33.3800        76
    33.4000        68
    33.4200        48
    33.4400        72
    33.4600        76
    33.4800        66
    33.5000        70
    33.5200        90
    33.5400        80
    33.5600        84
    33.5800       102
    33.6000        86
    33.6200       102
    33.6400       106
    33.6600        92
    33.6800        92
    33.7000        92
    33.7200       104
    33.7400        82
    33.7600       106
    33.7800        70
    33.8000        88
    33.8200        76
    33.8400        76
    33.8600        68
    33.8800        88
    33.9000        64
    33.9200        82
    33.9400        74
    33.9600        82
    33.9800        74
    34.0000        68
    34.0200        68
    34.0400        82
    34.0600        56
    34.0800        80
    34.1000        70
    34.1200        64
    34.1400        66
    34.1600        70
    34.1800        78
    34.2000        94
    34.2200        82
    34.2400        78
    34.2600       100
    34.2800        76
    34.3000        92
    34.3200       122
    34.3400       114
    34.3600       132
    34.3800       126
    34.4000       130
    34.4200       174
    34.4400       168
    34.4600       200
    34.4800       232
    34.5000       232
    34.5200       248
    34.5400       282
    34.5600       324
    34.5800       354
    34.6000       360
    34.6200       338
    34.6400       316
    34.6600       364
    34.6800       340
    34.7000       294
    34.7200       262
    34.7400       254
    34.7600       244
    34.7800       204
    34.8000       204
    34.8200       176
    34.8400       152
    34.8600       184
    34.8800       164
    34.9000       166
    34.9200       184
    34.9400       216
    34.9600       202
    34.9800       232
    35.0000       260
    35.0200       300
    35.0400       302
    35.0600       384
    35.0800       430
    35.1000       500
    35.1200       552
    35.1400       586
    35.1600       630
    35.1800       668
    35.2000       626
    35.2200       664
    35.2400       718
    35.2600       630
    35.2800       570
    35.3000       512
    35.3200       516
    35.3400       410
    35.3600       372
    35.3800       322
    35.4000       250
    35.4200       204
    35.4400       190
    35.4600       186
    35.4800       172
    35.5000       154
    35.5200       128
    35.5400       120
    35.5600       130
    35.5800       122
    35.6000       126
    35.6200       118
    35.6400       102
    35.6600        92
    35.6800        86
    35.7000        84
    35.7200       100
    35.7400        92
    35.7600        84
    35.7800        88
    35.8000        88
    35.8200        92
    35.8400        94
    35.8600        94
    35.8800        86
    35.9000        94
    35.9200        92
    35.9400        94
    35.9600       116
    35.9800        74
    36.0000        84
    36.0200        92
    36.0400        92
    36.0600        74
    36.0800       104
    36.1000        70
    36.1200       106
    36.1400        88
    36.1600       104
    36.1800       112
    36.2000       104
    36.2200        92
    36.2400       106
    36.2600        90
    36.2800       104
    36.3000       110
    36.3200       110
    36.3400       116
    36.3600       132
    36.3800       122
    36.4000       158
    36.4200       148
    36.4400       180
    36.4600       188
    36.4800       222
    36.5000       224
    36.5200       282
    36.5400       276
    36.5600       344
    36.5800       356
    36.6000       444
    36.6200       418
    36.6400       488
    36.6600       510
    36.6800       532
    36.7000       534
    36.7200       538
    36.7400       516
    36.7600       528
    36.7800       512
    36.8000       476
    36.8200       428
    36.8400       406
    36.8600       322
    36.8800       322
    36.9000       270
    36.9200       246
    36.9400       198
    36.9600       178
    36.9800       176
    37.0000       152
    37.0200       144
    37.0400       124
    37.0600       128
    37.0800       112
    37.1000        94
    37.1200       106
    37.1400       104
    37.1600       114
    37.1800       102
    37.2000        96
    37.2200        92
    37.2400        74
    37.2600        88
    37.2800        80
    37.3000        94
    37.3200       106
    37.3400       110
    37.3600       104
    37.3800       116
    37.4000       110
    37.4200       118
    37.4400       148
    37.4600       156
    37.4800       156
    37.5000       176
    37.5200       196
    37.5400       206
    37.5600       236
    37.5800       256
    37.6000       264
    37.6200       320
    37.6400       258
    37.6600       270
    37.6800       298
    37.7000       298
    37.7200       276
    37.7400       260
    37.7600       218
    37.7800       212
    37.8000       194
    37.8200       166
    37.8400       186
    37.8600       160
    37.8800       158
    37.9000       118
    37.9200       120
    37.9400       100
    37.9600        96
    37.9800       110
    38.0000        88
    38.0200        88
    38.0400        74
    38.0600        58
    38.0800        76
    38.1000        76
    38.1200        72
    38.1400        56
    38.1600        54
    38.1800        62
    38.2000        76
    38.2200        56
    38.2400        54
    38.2600        48
    38.2800        56
    38.3000        52
    38.3200        58
    38.3400        58
    38.3600        58
    38.3800        64
    38.4000        66
    38.4200        62
    38.4400        48
    38.4600        58
    38.4800        50
    38.5000        50
    38.5200        44
    38.5400        38
    38.5600        58
    38.5800        42
    38.6000        58
    38.6200        58
    38.6400        40
    38.6600        54
    38.6800        50
    38.7000        62
    38.7200        44
    38.7400        60
    38.7600        56
    38.7800        50
    38.8000        52
    38.8200        60
    38.8400        48
    38.8600        56
    38.8800        48
    38.9000        68
    38.9200        54
    38.9400        52
    38.9600        62
    38.9800        80
    39.0000        72
    39.0200        66
    39.0400        60
    39.0600        58
    39.0800        76
    39.1000        46
    39.1200        58
    39.1400        54
    39.1600        60
    39.1800        70
    39.2000        64
    39.2200        52
    39.2400        76
    39.2600        74
    39.2800        72
    39.3000        74
    39.3200        68
    39.3400        76
    39.3600        82
    39.3800        92
    39.4000        78
    39.4200        80
    39.4400       104
    39.4600        90
    39.4800       104
    39.5000       106
    39.5200       120
    39.5400       122
    39.5600       146
    39.5800       144
    39.6000       144
    39.6200       172
    39.6400       176
    39.6600       210
    39.6800       196
    39.7000       222
    39.7200       224
    39.7400       204
    39.7600       240
    39.7800       216
    39.8000       246
    39.8200       218
    39.8400       206
    39.8600       200
    39.8800       192
    39.9000       180
    39.9200       156
    39.9400       164
    39.9600       152
    39.9800       124
    40.0000       118
    40.0200       114
    40.0400       104
    40.0600        84
    40.0800        92
    40.1000        94
    40.1200        90
    40.1400        84
    40.1600        64
    40.1800        54
    40.2000        70
    40.2200        70
    40.2400        74
    40.2600        52
    40.2800        54
    40.3000        64
    40.3200        60
    40.3400        74
    40.3600        58
    40.3800        60
    40.4000        58
    40.4200        52
    40.4400        60
    40.4600        50
    40.4800        58
    40.5000        52
    40.5200        62
    40.5400        54
    40.5600        58
    40.5800        46
    40.6000        46
    40.6200        58
    40.6400        62
    40.6600        56
    40.6800        68
    40.7000        42
    40.7200        44
    40.7400        70
    40.7600        50
    40.7800        58
    40.8000        50
    40.8200        64
    40.8400        66
    40.8600        60
    40.8800        64
    40.9000        62
    40.9200        62
    40.9400        64
    40.9600        52
    40.9800        66
    41.0000        58
    41.0200        76
    41.0400        48
    41.0600        52
    41.0800        64
    41.1000        52
    41.1200        58
    41.1400        52
    41.1600        60
    41.1800        50
    41.2000        54
    41.2200        42
    41.2400        48
    41.2600        48
    41.2800        42
    41.3000        56
    41.3200        60
    41.3400        50
    41.3600        44
    41.3800        42
    41.4000        54
    41.4200        42
    41.4400        36
    41.4600        44
    41.4800        44
    41.5000        64
    41.5200        46
    41.5400        42
    41.5600        60
    41.5800        52
    41.6000        36
    41.6200        32
    41.6400        48
    41.6600        48
    41.6800        48
    41.7000        50
    41.7200        44
    41.7400        38
    41.7600        38
    41.7800        48
    41.8000        36
    41.8200        48
    41.8400        32
    41.8600        46
    41.8800        42
    41.9000        42
    41.9200        40
    41.9400        46
    41.9600        46
    41.9800        40
    42.0000        38
    42.0200        46
    42.0400        58
    42.0600        40
    42.0800        54
    42.1000        38
    42.1200        48
    42.1400        44
    42.1600        46
    42.1800        40
    42.2000        42
    42.2200        48
    42.2400        44
    42.2600        52
    42.2800        46
    42.3000        42
    42.3200        36
    42.3400        46
    42.3600        50
    42.3800        52
    42.4000        42
    42.4200        50
    42.4400        42
    42.4600        60
    42.4800        46
    42.5000        46
    42.5200        40
    42.5400        54
    42.5600        36
    42.5800        62
    42.6000        56
    42.6200        62
    42.6400        32
    42.6600        54
    42.6800        44
    42.7000        48
    42.7200        44
    42.7400        52
    42.7600        50
    42.7800        48
    42.8000        54
    42.8200        48
    42.8400        40
    42.8600        46
    42.8800        44
    42.9000        56
    42.9200        60
    42.9400        50
    42.9600        62
    42.9800        56
    43.0000        42
    43.0200        54
    43.0400        70
    43.0600        52
    43.0800        36
    43.1000        56
    43.1200        50
    43.1400        52
    43.1600        52
    43.1800        52
    43.2000        54
    43.2200        46
    43.2400        62
    43.2600        60
    43.2800        50
    43.3000        64
    43.3200        46
    43.3400        56
    43.3600        78
    43.3800        74
    43.4000        68
    43.4200        66
    43.4400        54
    43.4600        70
    43.4800        76
    43.5000        82
    43.5200        90
    43.5400        86
    43.5600        82
    43.5800        86
    43.6000        82
    43.6200        82
    43.6400        80
    43.6600       102
    43.6800        96
    43.7000        88
    43.7200        82
    43.7400        88
    43.7600        86
    43.7800        92
    43.8000        86
    43.8200        80
    43.8400        78
    43.8600        92
    43.8800        76
    43.9000        86
    43.9200        70
    43.9400        64
    43.9600        68
    43.9800        70
    44.0000        68
    44.0200        58
    44.0400        66
    44.0600        74
    44.0800        66
    44.1000        82
    44.1200        92
    44.1400        80
    44.1600        72
    44.1800       106
    44.2000       106
    44.2200       102
    44.2400       122
    44.2600       126
    44.2800       124
    44.3000       154
    44.3200       166
    44.3400       164
    44.3600       168
    44.3800       142
    44.4000       164
    44.4200       152
    44.4400       136
    44.4600       154
    44.4800       134
    44.5000       116
    44.5200       136
    44.5400       144
    44.5600       160
    44.5800       134
    44.6000       122
    44.6200       132
    44.6400       132
    44.6600       148
    44.6800       126
    44.7000       152
    44.7200       182
    44.7400       176
    44.7600       180
    44.7800       206
    44.8000       204
    44.8200       224
    44.8400       242
    44.8600       284
    44.8800       266
    44.9000       322
    44.9200       324
    44.9400       378
    44.9600       370
    44.9800       384
    45.0000       390
    45.0200       446
    45.0400       464
    45.0600       454
    45.0800       432
    45.1000       434
    45.1200       478
    45.1400       442
    45.1600       424
    45.1800       426
    45.2000       370
    45.2200       372
    45.2400       340
    45.2600       328
    45.2800       336
    45.3000       272
    45.3200       234
    45.3400       244
    45.3600       194
    45.3800       170
    45.4000       144
    45.4200       148
    45.4400       132
    45.4600       144
    45.4800       112
    45.5000       128
    45.5200       124
    45.5400       100
    45.5600        88
    45.5800        96
    45.6000       110
    45.6200        72
    45.6400        94
    45.6600        84
    45.6800        80
    45.7000        82
    45.7200        64
    45.7400        68
    45.7600        70
    45.7800        58
    45.8000        64
    45.8200        70
    45.8400        60
    45.8600        46
    45.8800        72
    45.9000        50
    45.9200        56
    45.9400        52
    45.9600        44
    45.9800        52
    46.0000        52
    46.0200        46
    46.0400        50
    46.0600        56
    46.0800        52
    46.1000        64
    46.1200        48
    46.1400        58
    46.1600        50
    46.1800        32
    46.2000        50
    46.2200        48
    46.2400        44
    46.2600        64
    46.2800        48
    46.3000        56
    46.3200        58
    46.3400        48
    46.3600        40
    46.3800        50
    46.4000        38
    46.4200        50
    46.4400        46
    46.4600        46
    46.4800        46
    46.5000        50
    46.5200        46
    46.5400        50
    46.5600        56
    46.5800        58
    46.6000        56
    46.6200        56
    46.6400        50
    46.6600        48
    46.6800        44
    46.7000        58
    46.7200        38
    46.7400        36
    46.7600        58
    46.7800        48
    46.8000        60
    46.8200        44
    46.8400        50
    46.8600        42
    46.8800        46
    46.9000        52
    46.9200        34
    46.9400        40
    46.9600        54
    46.9800        46
    47.0000        42
    47.0200        42
    47.0400        58
    47.0600        48
    47.0800        48
    47.1000        60
    47.1200        52
    47.1400        40
    47.1600        64
    47.1800        48
    47.2000        40
    47.2200        40
    47.2400        44
    47.2600        54
    47.2800        46
    47.3000        40
    47.3200        50
    47.3400        46
    47.3600        34
    47.3800        46
    47.4000        48
    47.4200        46
    47.4400        30
    47.4600        46
    47.4800        46
    47.5000        42
    47.5200        46
    47.5400        60
    47.5600        50
    47.5800        54
    47.6000        54
    47.6200        62
    47.6400        58
    47.6600        60
    47.6800        64
    47.7000        60
    47.7200        64
    47.7400        74
    47.7600        68
    47.7800        84
    47.8000        82
    47.8200        90
    47.8400        90
    47.8600        92
    47.8800        78
    47.9000       126
    47.9200       102
    47.9400       100
    47.9600       126
    47.9800       108
    48.0000       132
    48.0200       138
    48.0400       142
    48.0600       148
    48.0800       154
    48.1000       158
    48.1200       214
    48.1400       202
    48.1600       162
    48.1800       174
    48.2000       166
    48.2200       178
    48.2400       150
    48.2600       154
    48.2800       164
    48.3000       138
    48.3200       146
    48.3400       116
    48.3600       102
    48.3800       104
    48.4000        96
    48.4200        94
    48.4400       104
    48.4600        94
    48.4800        96
    48.5000        74
    48.5200        62
    48.5400        62
    48.5600        64
    48.5800        72
    48.6000        66
    48.6200        90
    48.6400        60
    48.6600        68
    48.6800        58
    48.7000        44
    48.7200        60
    48.7400        66
    48.7600        60
    48.7800        54
    48.8000        54
    48.8200        56
    48.8400        60
    48.8600        42
    48.8800        54
    48.9000        68
    48.9200        46
    48.9400        68
    48.9600        60
    48.9800        48
    49.0000        48
    49.0200        44
    49.0400        46
    49.0600        52
    49.0800        50
    49.1000        62
    49.1200        52
    49.1400        52
    49.1600        62
    49.1800        48
    49.2000        62
    49.2200        60
    49.2400        54
    49.2600        46
    49.2800        70
    49.3000        64
    49.3200        54
    49.3400        52
    49.3600        72
    49.3800        66
    49.4000        64
    49.4200        70
    49.4400        90
    49.4600        90
    49.4800        86
    49.5000        76
    49.5200        96
    49.5400        96
    49.5600       130
    49.5800       122
    49.6000       110
    49.6200       124
    49.6400       122
    49.6600       136
    49.6800       150
    49.7000       180
    49.7200       134
    49.7400       134
    49.7600       164
    49.7800       166
    49.8000       142
    49.8200       166
    49.8400       168
    49.8600       154
    49.8800       146
    49.9000       146
    49.9200       160
    49.9400       144
    49.9600       130
    49.9800       124
    50.0000       132
    50.0200       106
    50.0400        96
    50.0600        96
    50.0800        86
    50.1000        86
    50.1200        74
    50.1400        80
    50.1600        72
    50.1800        84
    50.2000        64
    50.2200        72
    50.2400        62
    50.2600        56
    50.2800        60
    50.3000        62
    50.3200        58
    50.3400        56
    50.3600        60
    50.3800        48
    50.4000        60
    50.4200        56
    50.4400        32
    50.4600        46
    50.4800        60
    50.5000        48
    50.5200        44
    50.5400        50
    50.5600        44
    50.5800        56
    50.6000        52
    50.6200        30
    50.6400        40
    50.6600        42
    50.6800        42
    50.7000        52
    50.7200        46
    50.7400        42
    50.7600        58
    50.7800        52
    50.8000        50
    50.8200        54
    50.8400        40
    50.8600        50
    50.8800        42
    50.9000        38
    50.9200        50
    50.9400        52
    50.9600        42
    50.9800        38
    51.0000        38
    51.0200        40
    51.0400        38
    51.0600        30
    51.0800        40
    51.1000        42
    51.1200        44
    51.1400        44
    51.1600        38
    51.1800        50
    51.2000        38
    51.2200        42
    51.2400        54
    51.2600        46
    51.2800        40
    51.3000        54
    51.3200        46
    51.3400        44
    51.3600        42
    51.3800        44
    51.4000        44
    51.4200        36
    51.4400        46
    51.4600        44
    51.4800        30
    51.5000        38
    51.5200        34
    51.5400        44
    51.5600        44
    51.5800        38
    51.6000        52
    51.6200        36
    51.6400        58
    51.6600        32
    51.6800        40
    51.7000        48
    51.7200        46
    51.7400        42
    51.7600        36
    51.7800        36
    51.8000        30
    51.8200        34
    51.8400        42
    51.8600        30
    51.8800        42
    51.9000        42
    51.9200        34
    51.9400        42
    51.9600        44
    51.9800        50
    52.0000        34
    52.0200        34
    52.0400        38
    52.0600        40
    52.0800        44
    52.1000        44
    52.1200        48
    52.1400        40
    52.1600        40
    52.1800        48
    52.2000        52
    52.2200        38
    52.2400        48
    52.2600        50
    52.2800        70
    52.3000        72
    52.3200        52
    52.3400        60
    52.3600        56
    52.3800        78
    52.4000        78
    52.4200        74
    52.4400        84
    52.4600        76
    52.4800        84
    52.5000        66
    52.5200        94
    52.5400        88
    52.5600        92
    52.5800        96
    52.6000        94
    52.6200        78
    52.6400        74
    52.6600        70
    52.6800        86
    52.7000        92
    52.7200        84
    52.7400        80
    52.7600        82
    52.7800        82
    52.8000        82
    52.8200        76
    52.8400        82
    52.8600        80
    52.8800        72
    52.9000        86
    52.9200        72
    52.9400        88
    52.9600        72
    52.9800        84
    53.0000        74
    53.0200        84
    53.0400        94
    53.0600        90
    53.0800       100
    53.1000        82
    53.1200        88
    53.1400        74
    53.1600        74
    53.1800        74
    53.2000        88
    53.2200        64
    53.2400        76
    53.2600        72
    53.2800        78
    53.3000        86
    53.3200        78
    53.3400        80
    53.3600        76
    53.3800        64
    53.4000        78
    53.4200        66
    53.4400        72
    53.4600        78
    53.4800        74
    53.5000        82
    53.5200        68
    53.5400        52
    53.5600        48
    53.5800        68
    53.6000        60
    53.6200        66
    53.6400        60
    53.6600        62
    53.6800        60
    53.7000        56
    53.7200        56
    53.7400        64
    53.7600        72
    53.7800        62
    53.8000        60
    53.8200        40
    53.8400        60
    53.8600        58
    53.8800        58
    53.9000        64
    53.9200        48
    53.9400        50
    53.9600        60
    53.9800        56
    54.0000        44
    54.0200        48
    54.0400        58
    54.0600        60
    54.0800        44
    54.1000        54
    54.1200        74
    54.1400        52
    54.1600        44
    54.1800        46
    54.2000        62
    54.2200        64
    54.2400        50
    54.2600        60
    54.2800        60
    54.3000        62
    54.3200        52
    54.3400        58
    54.3600        72
    54.3800        48
    54.4000        66
    54.4200        60
    54.4400        72
    54.4600        64
    54.4800        44
    54.5000        62
    54.5200        54
    54.5400        62
    54.5600        66
    54.5800        58
    54.6000        66
    54.6200        60
    54.6400        78
    54.6600        62
    54.6800        66
    54.7000        74
    54.7200        74
    54.7400        74
    54.7600        84
    54.7800        86
    54.8000        80
    54.8200       100
    54.8400        88
    54.8600       108
    54.8800        90
    54.9000       102
    54.9200       102
    54.9400        98
    54.9600       104
    54.9800        88
    55.0000        92
    55.0200        90
    55.0400       100
    55.0600        92
    55.0800       104
    55.1000       102
    55.1200        88
    55.1400       102
    55.1600        88
    55.1800        88
    55.2000        80
    55.2200        96
    55.2400        84
    55.2600        86
    55.2800        72
    55.3000        84
    55.3200        66
    55.3400        84
    55.3600        72
    55.3800        58
    55.4000        66
    55.4200        64
    55.4400        70
    55.4600        78
    55.4800        60
    55.5000        58
    55.5200        50
    55.5400        72
    55.5600        66
    55.5800        62
    55.6000        56
    55.6200        58
    55.6400        58
    55.6600        64
    55.6800        58
    55.7000        56
    55.7200        58
    55.7400        40
    55.7600        46
    55.7800        66
    55.8000        54
    55.8200        64
    55.8400        58
    55.8600        56
    55.8800        62
    55.9000        58
    55.9200        56
    55.9400        48
    55.9600        66
    55.9800        40
    56.0000        50
    56.0200        48
    56.0400        42
    56.0600        48
    56.0800        34
    56.1000        50
    56.1200        52
    56.1400        48
    56.1600        44
    56.1800        56
    56.2000        40
    56.2200        52
    56.2400        50
    56.2600        56
    56.2800        52
    56.3000        66
    56.3200        48
    56.3400        50
    56.3600        52
    56.3800        46
    56.4000        48
    56.4200        40
    56.4400        56
    56.4600        52
    56.4800        56
    56.5000        60
    56.5200        40
    56.5400        50
    56.5600        40
    56.5800        66
    56.6000        46
    56.6200        50
    56.6400        46
    56.6600        54
    56.6800        48
    56.7000        54
    56.7200        42
    56.7400        46
    56.7600        40
    56.7800        50
    56.8000        50
    56.8200        44
    56.8400        30
    56.8600        66
    56.8800        38
    56.9000        52
    56.9200        52
    56.9400        54
    56.9600        40
    56.9800        54
    57.0000        34
    57.0200        52
    57.0400        52
    57.0600        46
    57.0800        52
    57.1000        46
    57.1200        56
    57.1400        40
    57.1600        52
    57.1800        48
    57.2000        54
    57.2200        36
    57.2400        48
    57.2600        56
    57.2800        56
    57.3000        50
    57.3200        46
    57.3400        50
    57.3600        56
    57.3800        62
    57.4000        36
    57.4200        54
    57.4400        48
    57.4600        58
    57.4800        48
    57.5000        68
    57.5200        46
    57.5400        58
    57.5600        64
    57.5800        58
    57.6000        62
    57.6200        64
    57.6400        54
    57.6600        44
    57.6800        46
    57.7000        62
    57.7200        50
    57.7400        70
    57.7600        64
    57.7800        58
    57.8000        74
    57.8200        52
    57.8400        66
    57.8600        50
    57.8800        84
    57.9000        52
    57.9200        80
    57.9400        60
    57.9600        80
    57.9800        66
    58.0000        88
    58.0200        76
    58.0400        84
    58.0600        70
    58.0800        74
    58.1000        82
    58.1200       116
    58.1400       100
    58.1600       114
    58.1800       116
    58.2000       104
    58.2200       114
    58.2400       100
    58.2600       122
    58.2800       120
    58.3000       152
    58.3200       132
    58.3400       164
    58.3600       140
    58.3800       164
    58.4000       154
    58.4200       180
    58.4400       166
    58.4600       184
    58.4800       212
    58.5000       226
    58.5200       216
    58.5400       242
    58.5600       222
    58.5800       260
    58.6000       262
    58.6200       272
    58.6400       280
    58.6600       280
    58.6800       302
    58.7000       312
    58.7200       332
    58.7400       276
    58.7600       282
    58.7800       264
    58.8000       274
    58.8200       266
    58.8400       262
    58.8600       276
    58.8800       268
    58.9000       242
    58.9200       208
    58.9400       202
    58.9600       190
    58.9800       182
    59.0000       194
    59.0200       188
    59.0400       160
    59.0600       164
    59.0800       138
    59.1000       160
    59.1200       148
    59.1400       138
    59.1600       104
    59.1800       112
    59.2000       110
    59.2200       122
    59.2400       108
    59.2600        88
    59.2800        76
    59.3000        96
    59.3200        86
    59.3400        78
    59.3600        88
    59.3800        76
    59.4000        86
    59.4200        76
    59.4400        74
    59.4600        68
    59.4800        70
    59.5000        74
    59.5200        68
    59.5400        76
    59.5600        80
    59.5800        66
    59.6000        70
    59.6200        76
    59.6400        74
    59.6600        76
    59.6800        80
    59.7000        78
    59.7200        94
    59.7400        76
    59.7600        88
    59.7800        90
    59.8000       100
    59.8200       102
    59.8400       118
    59.8600       126
    59.8800       150
    59.9000       142
    59.9200       158
    59.9400       194
    59.9600       212
    59.9800       266
    60.0000       310
    60.0200       348
    60.0400       412
    60.0600       434
    60.0800       438
    60.1000       446
    60.1200       454
    60.1400       430
    60.1600       458
    60.1800       438
    60.2000       404
    60.2200       386
    60.2400       332
    60.2600       338
    60.2800       316
    60.3000       310
    60.3200       236
    60.3400       240
    60.3600       208
    60.3800       226
    60.4000       180
    60.4200       156
    60.4400       118
    60.4600       146
    60.4800       116
    60.5000       116
    60.5200       104
    60.5400       108
    60.5600        92
    60.5800       106
    60.6000        86
    60.6200       108
    60.6400        76
    60.6600        92
    60.6800        86
    60.7000        92
    60.7200        80
    60.7400        88
    60.7600        68
    60.7800        86
    60.8000        58
    60.8200        72
    60.8400        66
    60.8600        66
    60.8800        70
    60.9000        72
    60.9200        76
    60.9400        52
    60.9600        58
    60.9800        60
    61.0000        72
    61.0200        68
    61.0400        62
    61.0600        56
    61.0800        56
    61.1000        62
    61.1200        60
    61.1400        54
    61.1600        70
    61.1800        66
    61.2000        58
    61.2200        66
    61.2400        60
    61.2600        56
    61.2800        74
    61.3000        82
    61.3200        76
    61.3400        74
    61.3600        72
    61.3800        88
    61.4000        80
    61.4200        86
    61.4400        92
    61.4600       106
    61.4800       122
    61.5000       120
    61.5200       116
    61.5400       122
    61.5600       128
    61.5800       148
    61.6000       158
    61.6200       124
    61.6400       156
    61.6600       162
    61.6800       134
    61.7000       174
    61.7200       148
    61.7400       126
    61.7600       134
    61.7800       150
    61.8000       118
    61.8200       126
    61.8400       114
    61.8600        98
    61.8800       100
    61.9000        80
    61.9200        92
    61.9400        76
    61.9600        56
    61.9800        70
    62.0000        62
    62.0200        52
    62.0400        64
    62.0600        62
    62.0800        62
    62.1000        58
    62.1200        42
    62.1400        52
    62.1600        42
    62.1800        64
    62.2000        48
    62.2200        50
    62.2400        50
    62.2600        54
    62.2800        58
    62.3000        40
    62.3200        34
    62.3400        56
    62.3600        46
    62.3800        44
    62.4000        48
    62.4200        38
    62.4400        52
    62.4600        38
    62.4800        46
    62.5000        34
    62.5200        48
    62.5400        32
    62.5600        40
    62.5800        48
    62.6000        56
    62.6200        40
    62.6400        34
    62.6600        38
    62.6800        36
    62.7000        40
    62.7200        50
    62.7400        62
    62.7600        48
    62.7800        44
    62.8000        42
    62.8200        46
    62.8400        48
    62.8600        48
    62.8800        46
    62.9000        50
    62.9200        44
    62.9400        38
    62.9600        38
    62.9800        54
    63.0000        50
    63.0200        58
    63.0400        54
    63.0600        38
    63.0800        50
    63.1000        44
    63.1200        48
    63.1400        48
    63.1600        38
    63.1800        42
    63.2000        42
    63.2200        56
    63.2400        46
    63.2600        54
    63.2800        54
    63.3000        54
    63.3200        72
    63.3400        48
    63.3600        60
    63.3800        60
    63.4000        58
    63.4200        88
    63.4400        70
    63.4600        78
    63.4800        68
    63.5000        84
    63.5200        86
    63.5400        62
    63.5600        70
    63.5800        54
    63.6000        78
    63.6200        74
    63.6400        74
    63.6600        70
    63.6800        50
    63.7000        58
    63.7200        72
    63.7400        72
    63.7600        50
    63.7800        44
    63.8000        56
    63.8200        42
    63.8400        62
    63.8600        44
    63.8800        50
    63.9000        58
    63.9200        36
    63.9400        52
    63.9600        42
    63.9800        40
    64.0000        50
    64.0200        48
    64.0400        32
    64.0600        30
    64.0800        46
    64.1000        30
    64.1200        48
    64.1400        50
    64.1600        38
    64.1800        28
    64.2000        42
    64.2200        46
    64.2400        48
    64.2600        32
    64.2800        34
    64.3000        54
    64.3200        32
    64.3400        40
    64.3600        48
    64.3800        42
    64.4000        36
    64.4200        42
    64.4400        40
    64.4600        44
    64.4800        44
    64.5000        46
    64.5200        56
    64.5400        56
    64.5600        50
    64.5800        56
    64.6000        54
    64.6200        50
    64.6400        46
    64.6600        42
    64.6800        42
    64.7000        48
    64.7200        42
    64.7400        40
    64.7600        54
    64.7800        46
    64.8000        46
    64.8200        52
    64.8400        50
    64.8600        48
    64.8800        30
    64.9000        54
    64.9200        50
    64.9400        48
    64.9600        66
    64.9800        32
    65.0000        60
