/////////////////////////////////////////////////////////////////////////////////
/// Profile Data Ascii Dump (XRD)                                             ///
/////////////////////////////////////////////////////////////////////////////////

  Group     : Swayze
  Data      : GDS135
  File Name : GDS135.RAW

# Profile Datafile
          comment             = Sauconite 
          date & time         = 08-03-14 07:26:52 

# Measurement Condition
    X-ray tube
          target              = Cu 
          voltage             = 40.0 (kV)
          current             = 30.0 (mA)
    Slits
          divergence slit     = 2.00000 (deg) 
          scatter slit        = 2.00000 (deg) 
          receiving slit      = 0.15000 (mm)  
    Scanning
          drive axis          = Theta-2Theta 
          scan range          =    4.000 -   65.000 
          scan mode           = Continuous Scan 
          scan speed          =   2.0000 (deg/min) 
          sampling pitch      =   0.0200 (deg) 
          preset time         =   0.60 (sec) 

# Data      [ Total No. = 3051 ]
  <2Theta>   <   I   >
     4.0000       232
     4.0200       232
     4.0400       262
     4.0600       224
     4.0800       246
     4.1000       278
     4.1200       304
     4.1400       254
     4.1600       258
     4.1800       264
     4.2000       260
     4.2200       256
     4.2400       252
     4.2600       258
     4.2800       260
     4.3000       256
     4.3200       280
     4.3400       284
     4.3600       274
     4.3800       274
     4.4000       270
     4.4200       268
     4.4400       274
     4.4600       294
     4.4800       286
     4.5000       308
     4.5200       246
     4.5400       304
     4.5600       278
     4.5800       304
     4.6000       318
     4.6200       274
     4.6400       318
     4.6600       292
     4.6800       306
     4.7000       294
     4.7200       312
     4.7400       316
     4.7600       324
     4.7800       328
     4.8000       358
     4.8200       330
     4.8400       362
     4.8600       332
     4.8800       346
     4.9000       324
     4.9200       384
     4.9400       336
     4.9600       382
     4.9800       418
     5.0000       380
     5.0200       396
     5.0400       396
     5.0600       380
     5.0800       408
     5.1000       414
     5.1200       420
     5.1400       448
     5.1600       442
     5.1800       450
     5.2000       480
     5.2200       478
     5.2400       476
     5.2600       516
     5.2800       544
     5.3000       546
     5.3200       586
     5.3400       544
     5.3600       548
     5.3800       582
     5.4000       626
     5.4200       606
     5.4400       618
     5.4600       624
     5.4800       638
     5.5000       658
     5.5200       728
     5.5400       722
     5.5600       726
     5.5800       736
     5.6000       826
     5.6200       848
     5.6400       804
     5.6600       866
     5.6800       902
     5.7000       860
     5.7200       896
     5.7400       966
     5.7600       970
     5.7800       944
     5.8000      1018
     5.8200      1028
     5.8400      1026
     5.8600      1042
     5.8800      1106
     5.9000      1072
     5.9200      1164
     5.9400      1136
     5.9600      1172
     5.9800      1064
     6.0000      1194
     6.0200      1180
     6.0400      1140
     6.0600      1226
     6.0800      1148
     6.1000      1150
     6.1200      1122
     6.1400      1138
     6.1600      1216
     6.1800      1144
     6.2000      1174
     6.2200      1192
     6.2400      1140
     6.2600      1116
     6.2800      1158
     6.3000      1152
     6.3200      1118
     6.3400      1036
     6.3600      1080
     6.3800      1076
     6.4000      1072
     6.4200      1044
     6.4400       996
     6.4600       978
     6.4800       972
     6.5000       958
     6.5200       956
     6.5400       976
     6.5600       878
     6.5800       906
     6.6000       874
     6.6200       856
     6.6400       788
     6.6600       856
     6.6800       738
     6.7000       760
     6.7200       734
     6.7400       740
     6.7600       718
     6.7800       672
     6.8000       636
     6.8200       604
     6.8400       630
     6.8600       556
     6.8800       592
     6.9000       594
     6.9200       564
     6.9400       570
     6.9600       564
     6.9800       530
     7.0000       550
     7.0200       458
     7.0400       456
     7.0600       468
     7.0800       432
     7.1000       468
     7.1200       416
     7.1400       406
     7.1600       416
     7.1800       392
     7.2000       390
     7.2200       380
     7.2400       368
     7.2600       326
     7.2800       390
     7.3000       332
     7.3200       340
     7.3400       302
     7.3600       312
     7.3800       322
     7.4000       316
     7.4200       300
     7.4400       258
     7.4600       308
     7.4800       262
     7.5000       272
     7.5200       268
     7.5400       252
     7.5600       284
     7.5800       272
     7.6000       240
     7.6200       234
     7.6400       244
     7.6600       244
     7.6800       212
     7.7000       244
     7.7200       206
     7.7400       200
     7.7600       202
     7.7800       202
     7.8000       200
     7.8200       192
     7.8400       198
     7.8600       182
     7.8800       210
     7.9000       186
     7.9200       190
     7.9400       184
     7.9600       188
     7.9800       160
     8.0000       186
     8.0200       222
     8.0400       170
     8.0600       188
     8.0800       194
     8.1000       184
     8.1200       182
     8.1400       174
     8.1600       184
     8.1800       182
     8.2000       172
     8.2200       166
     8.2400       170
     8.2600       164
     8.2800       154
     8.3000       164
     8.3200       148
     8.3400       174
     8.3600       160
     8.3800       158
     8.4000       172
     8.4200       174
     8.4400       176
     8.4600       202
     8.4800       172
     8.5000       184
     8.5200       162
     8.5400       146
     8.5600       158
     8.5800       158
     8.6000       160
     8.6200       166
     8.6400       154
     8.6600       154
     8.6800       140
     8.7000       180
     8.7200       154
     8.7400       152
     8.7600       164
     8.7800       124
     8.8000       162
     8.8200       152
     8.8400       148
     8.8600       156
     8.8800       138
     8.9000       170
     8.9200       142
     8.9400       152
     8.9600       120
     8.9800       166
     9.0000       124
     9.0200       156
     9.0400       152
     9.0600       158
     9.0800       166
     9.1000       152
     9.1200       116
     9.1400       138
     9.1600       162
     9.1800       138
     9.2000       152
     9.2200       156
     9.2400       140
     9.2600       136
     9.2800       144
     9.3000       152
     9.3200       104
     9.3400       130
     9.3600       126
     9.3800       144
     9.4000       128
     9.4200       142
     9.4400       130
     9.4600       124
     9.4800       132
     9.5000       124
     9.5200       154
     9.5400       122
     9.5600       148
     9.5800       130
     9.6000       136
     9.6200       124
     9.6400       148
     9.6600       130
     9.6800       156
     9.7000       126
     9.7200       128
     9.7400       138
     9.7600       120
     9.7800       128
     9.8000       128
     9.8200       114
     9.8400       122
     9.8600       150
     9.8800       134
     9.9000       146
     9.9200       134
     9.9400       120
     9.9600       122
     9.9800       120
    10.0000       156
    10.0200       110
    10.0400       118
    10.0600       152
    10.0800       144
    10.1000       130
    10.1200       104
    10.1400       114
    10.1600       118
    10.1800       132
    10.2000       142
    10.2200       136
    10.2400       140
    10.2600       138
    10.2800       140
    10.3000       128
    10.3200       124
    10.3400       138
    10.3600       136
    10.3800       124
    10.4000       126
    10.4200       124
    10.4400       132
    10.4600       116
    10.4800       116
    10.5000       140
    10.5200       124
    10.5400       114
    10.5600       122
    10.5800       136
    10.6000       102
    10.6200       128
    10.6400       140
    10.6600       106
    10.6800       134
    10.7000       130
    10.7200       126
    10.7400       118
    10.7600       114
    10.7800       100
    10.8000       152
    10.8200       110
    10.8400       110
    10.8600       134
    10.8800       114
    10.9000       122
    10.9200       118
    10.9400       118
    10.9600       134
    10.9800       120
    11.0000       138
    11.0200       136
    11.0400       110
    11.0600       128
    11.0800       154
    11.1000       148
    11.1200       112
    11.1400       118
    11.1600       112
    11.1800       120
    11.2000       130
    11.2200       120
    11.2400       132
    11.2600       104
    11.2800       126
    11.3000       134
    11.3200       134
    11.3400       172
    11.3600       108
    11.3800       138
    11.4000       134
    11.4200       128
    11.4400       136
    11.4600       136
    11.4800       110
    11.5000       124
    11.5200       102
    11.5400       156
    11.5600       132
    11.5800       138
    11.6000       116
    11.6200       166
    11.6400       122
    11.6600       140
    11.6800       144
    11.7000       138
    11.7200       154
    11.7400       134
    11.7600       140
    11.7800       140
    11.8000       124
    11.8200       152
    11.8400       146
    11.8600       152
    11.8800       128
    11.9000       168
    11.9200       152
    11.9400       142
    11.9600       126
    11.9800       138
    12.0000       130
    12.0200       166
    12.0400       158
    12.0600       166
    12.0800       156
    12.1000       152
    12.1200       128
    12.1400       132
    12.1600       168
    12.1800       136
    12.2000       144
    12.2200       120
    12.2400       160
    12.2600       148
    12.2800       138
    12.3000       154
    12.3200       136
    12.3400       156
    12.3600       148
    12.3800       138
    12.4000       140
    12.4200       162
    12.4400       126
    12.4600       126
    12.4800       148
    12.5000       140
    12.5200       140
    12.5400       124
    12.5600       148
    12.5800       160
    12.6000       134
    12.6200       156
    12.6400       154
    12.6600       116
    12.6800       148
    12.7000       112
    12.7200       124
    12.7400       130
    12.7600       122
    12.7800       124
    12.8000       130
    12.8200       106
    12.8400       104
    12.8600       116
    12.8800       148
    12.9000       106
    12.9200       118
    12.9400       100
    12.9600       110
    12.9800       134
    13.0000       110
    13.0200       134
    13.0400       128
    13.0600       110
    13.0800        94
    13.1000       112
    13.1200        90
    13.1400        80
    13.1600       118
    13.1800       126
    13.2000       104
    13.2200        92
    13.2400       112
    13.2600       104
    13.2800       116
    13.3000       102
    13.3200        96
    13.3400       100
    13.3600        86
    13.3800        90
    13.4000       102
    13.4200       106
    13.4400        90
    13.4600        90
    13.4800        90
    13.5000       108
    13.5200       108
    13.5400        94
    13.5600        94
    13.5800        80
    13.6000        66
    13.6200       104
    13.6400        94
    13.6600        92
    13.6800       118
    13.7000        82
    13.7200        94
    13.7400        98
    13.7600       102
    13.7800       106
    13.8000        94
    13.8200        76
    13.8400        98
    13.8600        94
    13.8800        90
    13.9000        92
    13.9200        90
    13.9400        78
    13.9600        78
    13.9800       102
    14.0000        84
    14.0200        96
    14.0400        90
    14.0600       108
    14.0800        92
    14.1000        86
    14.1200        70
    14.1400        92
    14.1600        82
    14.1800        82
    14.2000        78
    14.2200        90
    14.2400        58
    14.2600        74
    14.2800        76
    14.3000        94
    14.3200        86
    14.3400        98
    14.3600        80
    14.3800        82
    14.4000        74
    14.4200        70
    14.4400        82
    14.4600        84
    14.4800        82
    14.5000        84
    14.5200        84
    14.5400        76
    14.5600        72
    14.5800        74
    14.6000        78
    14.6200        66
    14.6400        74
    14.6600        88
    14.6800        80
    14.7000        72
    14.7200        74
    14.7400        80
    14.7600        76
    14.7800        78
    14.8000        82
    14.8200        88
    14.8400        76
    14.8600        74
    14.8800        76
    14.9000        74
    14.9200        86
    14.9400        76
    14.9600        82
    14.9800        88
    15.0000        72
    15.0200        68
    15.0400        68
    15.0600        70
    15.0800        64
    15.1000        76
    15.1200        66
    15.1400        90
    15.1600        62
    15.1800        74
    15.2000        68
    15.2200        82
    15.2400        74
    15.2600        66
    15.2800        86
    15.3000        70
    15.3200        68
    15.3400        70
    15.3600        62
    15.3800        80
    15.4000        66
    15.4200        80
    15.4400        68
    15.4600        60
    15.4800        58
    15.5000        72
    15.5200        68
    15.5400        88
    15.5600        74
    15.5800        72
    15.6000        62
    15.6200        72
    15.6400        66
    15.6600        66
    15.6800        82
    15.7000        76
    15.7200        76
    15.7400        62
    15.7600        70
    15.7800        72
    15.8000        82
    15.8200        72
    15.8400        72
    15.8600        68
    15.8800        60
    15.9000        68
    15.9200        74
    15.9400        68
    15.9600        74
    15.9800        80
    16.0000        60
    16.0200        94
    16.0400        74
    16.0600        46
    16.0800        72
    16.1000        64
    16.1200        76
    16.1400        66
    16.1600        64
    16.1800        80
    16.2000        68
    16.2200        64
    16.2400        74
    16.2600        76
    16.2800        64
    16.3000        74
    16.3200        78
    16.3400        68
    16.3600        80
    16.3800        64
    16.4000        70
    16.4200        58
    16.4400        86
    16.4600        86
    16.4800        60
    16.5000        66
    16.5200        70
    16.5400        60
    16.5600        76
    16.5800        64
    16.6000        74
    16.6200        80
    16.6400        74
    16.6600        62
    16.6800        60
    16.7000        66
    16.7200        62
    16.7400        70
    16.7600        68
    16.7800        64
    16.8000        52
    16.8200        66
    16.8400        76
    16.8600        66
    16.8800        66
    16.9000        60
    16.9200        66
    16.9400        54
    16.9600        60
    16.9800        74
    17.0000        54
    17.0200        86
    17.0400        68
    17.0600        68
    17.0800        66
    17.1000        70
    17.1200        58
    17.1400        58
    17.1600        80
    17.1800        62
    17.2000        66
    17.2200        58
    17.2400        64
    17.2600        76
    17.2800        74
    17.3000        60
    17.3200        74
    17.3400        62
    17.3600        74
    17.3800        74
    17.4000        74
    17.4200        74
    17.4400        74
    17.4600        70
    17.4800        56
    17.5000        70
    17.5200        62
    17.5400        72
    17.5600        82
    17.5800        40
    17.6000        66
    17.6200        58
    17.6400        68
    17.6600        72
    17.6800        76
    17.7000        70
    17.7200        60
    17.7400        74
    17.7600        74
    17.7800        80
    17.8000        66
    17.8200        62
    17.8400        68
    17.8600        72
    17.8800        82
    17.9000        70
    17.9200        74
    17.9400        60
    17.9600        62
    17.9800        66
    18.0000        72
    18.0200        82
    18.0400        72
    18.0600        58
    18.0800        62
    18.1000        48
    18.1200        70
    18.1400        72
    18.1600        80
    18.1800        76
    18.2000        68
    18.2200        56
    18.2400        64
    18.2600        76
    18.2800        68
    18.3000        70
    18.3200        66
    18.3400        70
    18.3600        68
    18.3800        58
    18.4000        72
    18.4200        72
    18.4400        70
    18.4600        72
    18.4800        60
    18.5000        72
    18.5200        86
    18.5400        76
    18.5600        90
    18.5800        66
    18.6000        74
    18.6200        66
    18.6400        78
    18.6600        68
    18.6800        70
    18.7000        82
    18.7200        90
    18.7400        78
    18.7600        96
    18.7800        90
    18.8000        84
    18.8200       122
    18.8400       104
    18.8600       102
    18.8800        88
    18.9000       108
    18.9200       106
    18.9400       118
    18.9600       144
    18.9800       136
    19.0000       146
    19.0200       144
    19.0400       136
    19.0600       194
    19.0800       166
    19.1000       164
    19.1200       176
    19.1400       214
    19.1600       206
    19.1800       172
    19.2000       162
    19.2200       160
    19.2400       190
    19.2600       196
    19.2800       184
    19.3000       150
    19.3200       154
    19.3400       150
    19.3600       146
    19.3800       140
    19.4000       152
    19.4200       160
    19.4400       162
    19.4600       154
    19.4800       154
    19.5000       134
    19.5200       170
    19.5400       148
    19.5600       134
    19.5800       150
    19.6000       128
    19.6200       154
    19.6400       158
    19.6600       132
    19.6800       138
    19.7000       130
    19.7200       132
    19.7400       148
    19.7600       146
    19.7800       118
    19.8000       120
    19.8200       122
    19.8400       116
    19.8600       136
    19.8800       120
    19.9000       128
    19.9200       118
    19.9400       132
    19.9600       116
    19.9800       118
    20.0000       118
    20.0200       120
    20.0400       116
    20.0600       130
    20.0800       116
    20.1000       138
    20.1200       122
    20.1400       118
    20.1600       140
    20.1800       108
    20.2000       112
    20.2200       122
    20.2400        96
    20.2600       126
    20.2800       110
    20.3000       114
    20.3200       120
    20.3400       116
    20.3600       120
    20.3800       116
    20.4000       102
    20.4200       136
    20.4400        86
    20.4600       122
    20.4800       104
    20.5000       114
    20.5200       102
    20.5400       108
    20.5600       116
    20.5800       112
    20.6000       122
    20.6200       128
    20.6400       116
    20.6600        96
    20.6800       114
    20.7000       102
    20.7200       110
    20.7400       104
    20.7600       110
    20.7800       110
    20.8000       108
    20.8200       118
    20.8400       114
    20.8600       106
    20.8800       118
    20.9000       120
    20.9200       120
    20.9400       108
    20.9600       102
    20.9800       118
    21.0000       112
    21.0200       112
    21.0400       110
    21.0600       106
    21.0800       110
    21.1000       110
    21.1200       116
    21.1400       122
    21.1600       130
    21.1800       122
    21.2000       120
    21.2200       100
    21.2400       118
    21.2600       114
    21.2800       104
    21.3000       116
    21.3200       116
    21.3400       136
    21.3600       124
    21.3800       114
    21.4000       118
    21.4200       114
    21.4400       108
    21.4600       122
    21.4800       116
    21.5000       120
    21.5200       128
    21.5400       118
    21.5600       100
    21.5800       104
    21.6000       104
    21.6200       102
    21.6400       114
    21.6600       120
    21.6800       112
    21.7000        94
    21.7200        94
    21.7400       104
    21.7600        90
    21.7800       118
    21.8000       118
    21.8200       132
    21.8400        94
    21.8600       104
    21.8800       106
    21.9000       110
    21.9200       106
    21.9400       104
    21.9600       110
    21.9800       106
    22.0000        94
    22.0200       104
    22.0400       114
    22.0600        90
    22.0800        96
    22.1000       104
    22.1200        98
    22.1400       118
    22.1600        90
    22.1800       116
    22.2000        92
    22.2200       118
    22.2400       112
    22.2600       102
    22.2800        96
    22.3000       122
    22.3200       108
    22.3400       110
    22.3600       116
    22.3800       122
    22.4000       122
    22.4200       102
    22.4400       112
    22.4600       114
    22.4800       138
    22.5000       118
    22.5200       102
    22.5400       112
    22.5600       112
    22.5800       112
    22.6000        92
    22.6200       118
    22.6400       116
    22.6600       120
    22.6800       118
    22.7000       106
    22.7200        90
    22.7400       116
    22.7600       102
    22.7800       112
    22.8000       130
    22.8200       142
    22.8400       124
    22.8600       100
    22.8800       104
    22.9000       112
    22.9200       110
    22.9400        98
    22.9600       104
    22.9800       118
    23.0000       116
    23.0200       108
    23.0400       118
    23.0600        90
    23.0800       128
    23.1000       122
    23.1200       124
    23.1400       110
    23.1600       124
    23.1800       118
    23.2000       118
    23.2200       104
    23.2400       120
    23.2600       126
    23.2800       104
    23.3000       106
    23.3200       108
    23.3400       132
    23.3600       116
    23.3800       140
    23.4000       102
    23.4200       146
    23.4400       136
    23.4600       122
    23.4800       114
    23.5000       128
    23.5200       112
    23.5400       132
    23.5600       116
    23.5800       126
    23.6000       102
    23.6200       122
    23.6400       122
    23.6600       154
    23.6800       122
    23.7000       130
    23.7200       134
    23.7400       128
    23.7600       140
    23.7800       138
    23.8000       134
    23.8200       120
    23.8400       118
    23.8600       128
    23.8800       136
    23.9000       142
    23.9200       114
    23.9400       112
    23.9600       122
    23.9800       132
    24.0000       144
    24.0200       136
    24.0400       148
    24.0600       118
    24.0800       138
    24.1000       116
    24.1200       126
    24.1400       134
    24.1600       150
    24.1800       138
    24.2000       130
    24.2200       130
    24.2400       156
    24.2600       124
    24.2800       152
    24.3000       130
    24.3200       136
    24.3400       136
    24.3600       142
    24.3800       168
    24.4000       110
    24.4200       142
    24.4400       138
    24.4600       134
    24.4800       138
    24.5000       144
    24.5200       140
    24.5400       154
    24.5600       134
    24.5800       136
    24.6000       154
    24.6200       124
    24.6400       146
    24.6600       124
    24.6800       130
    24.7000       132
    24.7200       120
    24.7400       122
    24.7600       138
    24.7800       134
    24.8000       138
    24.8200       118
    24.8400       124
    24.8600       142
    24.8800       162
    24.9000       136
    24.9200       144
    24.9400       156
    24.9600       150
    24.9800       128
    25.0000       132
    25.0200       138
    25.0400       152
    25.0600       142
    25.0800       160
    25.1000       122
    25.1200       138
    25.1400       102
    25.1600       154
    25.1800       124
    25.2000       142
    25.2200       140
    25.2400       118
    25.2600       160
    25.2800       152
    25.3000       136
    25.3200       128
    25.3400       138
    25.3600       106
    25.3800       116
    25.4000       134
    25.4200       134
    25.4400       128
    25.4600       144
    25.4800       122
    25.5000       140
    25.5200       138
    25.5400       122
    25.5600       130
    25.5800       142
    25.6000       142
    25.6200       148
    25.6400       150
    25.6600       142
    25.6800       138
    25.7000       156
    25.7200       134
    25.7400       140
    25.7600       120
    25.7800       120
    25.8000       118
    25.8200       136
    25.8400       124
    25.8600       128
    25.8800       120
    25.9000       130
    25.9200       132
    25.9400       138
    25.9600       134
    25.9800       132
    26.0000       130
    26.0200       120
    26.0400       132
    26.0600       130
    26.0800       132
    26.1000       126
    26.1200       130
    26.1400       146
    26.1600       146
    26.1800       126
    26.2000       116
    26.2200       152
    26.2400       112
    26.2600       142
    26.2800       146
    26.3000       140
    26.3200       140
    26.3400       134
    26.3600       130
    26.3800       150
    26.4000       138
    26.4200       126
    26.4400       136
    26.4600       124
    26.4800       140
    26.5000       144
    26.5200       128
    26.5400       128
    26.5600       144
    26.5800       142
    26.6000       122
    26.6200       146
    26.6400       140
    26.6600       120
    26.6800       116
    26.7000       124
    26.7200       138
    26.7400       130
    26.7600       130
    26.7800       142
    26.8000       118
    26.8200       154
    26.8400       138
    26.8600       132
    26.8800       142
    26.9000       134
    26.9200       152
    26.9400       138
    26.9600       136
    26.9800       142
    27.0000       150
    27.0200       144
    27.0400       142
    27.0600       148
    27.0800       120
    27.1000       138
    27.1200       140
    27.1400       150
    27.1600       140
    27.1800       128
    27.2000       124
    27.2200       108
    27.2400       146
    27.2600       140
    27.2800       140
    27.3000       166
    27.3200       158
    27.3400       134
    27.3600       136
    27.3800       148
    27.4000       140
    27.4200       138
    27.4400       154
    27.4600       162
    27.4800       154
    27.5000       136
    27.5200       142
    27.5400       144
    27.5600       150
    27.5800       136
    27.6000       132
    27.6200       132
    27.6400       138
    27.6600       122
    27.6800       162
    27.7000       148
    27.7200       142
    27.7400       132
    27.7600       140
    27.7800       126
    27.8000       136
    27.8200       132
    27.8400       116
    27.8600       140
    27.8800       130
    27.9000       118
    27.9200       134
    27.9400       118
    27.9600       152
    27.9800       142
    28.0000       150
    28.0200       158
    28.0400       148
    28.0600       124
    28.0800       158
    28.1000       138
    28.1200       130
    28.1400       154
    28.1600       144
    28.1800       138
    28.2000       130
    28.2200       150
    28.2400       126
    28.2600       146
    28.2800       148
    28.3000       152
    28.3200       136
    28.3400       122
    28.3600       140
    28.3800       152
    28.4000       134
    28.4200       154
    28.4400       124
    28.4600       140
    28.4800       128
    28.5000       150
    28.5200       178
    28.5400       114
    28.5600       132
    28.5800       172
    28.6000       124
    28.6200       144
    28.6400       126
    28.6600       128
    28.6800       122
    28.7000       136
    28.7200       132
    28.7400       138
    28.7600       108
    28.7800       116
    28.8000       128
    28.8200       130
    28.8400       158
    28.8600       132
    28.8800       138
    28.9000       162
    28.9200       154
    28.9400       122
    28.9600       124
    28.9800       126
    29.0000       122
    29.0200       138
    29.0400       132
    29.0600       142
    29.0800       130
    29.1000       116
    29.1200       136
    29.1400       162
    29.1600       150
    29.1800       122
    29.2000       142
    29.2200       144
    29.2400       146
    29.2600       148
    29.2800       156
    29.3000       138
    29.3200       144
    29.3400       130
    29.3600       118
    29.3800       150
    29.4000       148
    29.4200       146
    29.4400       146
    29.4600       146
    29.4800       124
    29.5000       158
    29.5200       154
    29.5400       136
    29.5600       120
    29.5800       148
    29.6000       142
    29.6200       146
    29.6400       126
    29.6600       134
    29.6800       136
    29.7000       136
    29.7200       152
    29.7400       104
    29.7600       146
    29.7800       126
    29.8000       144
    29.8200       152
    29.8400       152
    29.8600       130
    29.8800       148
    29.9000       124
    29.9200       140
    29.9400       112
    29.9600       110
    29.9800       136
    30.0000       138
    30.0200       130
    30.0400       138
    30.0600       160
    30.0800       144
    30.1000       128
    30.1200       134
    30.1400       132
    30.1600       126
    30.1800       116
    30.2000       134
    30.2200       114
    30.2400       128
    30.2600       120
    30.2800       152
    30.3000       136
    30.3200       130
    30.3400       138
    30.3600       138
    30.3800       130
    30.4000       118
    30.4200       124
    30.4400       102
    30.4600       128
    30.4800       114
    30.5000       114
    30.5200       122
    30.5400       130
    30.5600       120
    30.5800       114
    30.6000        94
    30.6200       120
    30.6400       112
    30.6600       114
    30.6800       108
    30.7000       118
    30.7200       106
    30.7400       110
    30.7600       104
    30.7800       110
    30.8000        98
    30.8200       132
    30.8400       122
    30.8600        96
    30.8800       116
    30.9000       124
    30.9200       126
    30.9400       130
    30.9600       126
    30.9800       110
    31.0000       104
    31.0200       110
    31.0400        90
    31.0600       120
    31.0800       106
    31.1000       112
    31.1200       102
    31.1400       102
    31.1600       110
    31.1800       114
    31.2000        96
    31.2200       100
    31.2400       100
    31.2600        92
    31.2800       120
    31.3000       112
    31.3200        98
    31.3400        90
    31.3600        86
    31.3800       108
    31.4000       100
    31.4200       104
    31.4400       102
    31.4600        84
    31.4800        82
    31.5000       100
    31.5200       100
    31.5400        80
    31.5600        98
    31.5800        94
    31.6000       106
    31.6200       102
    31.6400       102
    31.6600        98
    31.6800        96
    31.7000       104
    31.7200        96
    31.7400       106
    31.7600        70
    31.7800       108
    31.8000        80
    31.8200       104
    31.8400        80
    31.8600        94
    31.8800        92
    31.9000        84
    31.9200       104
    31.9400        98
    31.9600        90
    31.9800       102
    32.0000        82
    32.0200        82
    32.0400       114
    32.0600        86
    32.0800        92
    32.1000       114
    32.1200        98
    32.1400       102
    32.1600       110
    32.1800       100
    32.2000        78
    32.2200        94
    32.2400        90
    32.2600        98
    32.2800        82
    32.3000        94
    32.3200        82
    32.3400        96
    32.3600        92
    32.3800        90
    32.4000       104
    32.4200        74
    32.4400        80
    32.4600        82
    32.4800        86
    32.5000       100
    32.5200        82
    32.5400        92
    32.5600       100
    32.5800        92
    32.6000       100
    32.6200        94
    32.6400        92
    32.6600        98
    32.6800        82
    32.7000       106
    32.7200        64
    32.7400        82
    32.7600       106
    32.7800        92
    32.8000        86
    32.8200       112
    32.8400        90
    32.8600        84
    32.8800       114
    32.9000       106
    32.9200       118
    32.9400        94
    32.9600       118
    32.9800       110
    33.0000       104
    33.0200        94
    33.0400       100
    33.0600       104
    33.0800       108
    33.1000       102
    33.1200       122
    33.1400       118
    33.1600       122
    33.1800       112
    33.2000       126
    33.2200       148
    33.2400       170
    33.2600       136
    33.2800       148
    33.3000       176
    33.3200       172
    33.3400       204
    33.3600       222
    33.3800       238
    33.4000       244
    33.4200       256
    33.4400       284
    33.4600       284
    33.4800       286
    33.5000       314
    33.5200       296
    33.5400       316
    33.5600       304
    33.5800       334
    33.6000       356
    33.6200       272
    33.6400       314
    33.6600       302
    33.6800       296
    33.7000       316
    33.7200       300
    33.7400       278
    33.7600       278
    33.7800       310
    33.8000       296
    33.8200       288
    33.8400       280
    33.8600       276
    33.8800       308
    33.9000       260
    33.9200       262
    33.9400       290
    33.9600       302
    33.9800       294
    34.0000       296
    34.0200       266
    34.0400       284
    34.0600       264
    34.0800       308
    34.1000       262
    34.1200       312
    34.1400       278
    34.1600       288
    34.1800       294
    34.2000       276
    34.2200       242
    34.2400       278
    34.2600       290
    34.2800       294
    34.3000       250
    34.3200       278
    34.3400       274
    34.3600       278
    34.3800       286
    34.4000       270
    34.4200       272
    34.4400       268
    34.4600       264
    34.4800       292
    34.5000       278
    34.5200       300
    34.5400       294
    34.5600       270
    34.5800       266
    34.6000       270
    34.6200       284
    34.6400       272
    34.6600       272
    34.6800       290
    34.7000       302
    34.7200       266
    34.7400       270
    34.7600       282
    34.7800       286
    34.8000       272
    34.8200       296
    34.8400       246
    34.8600       288
    34.8800       262
    34.9000       258
    34.9200       254
    34.9400       246
    34.9600       256
    34.9800       258
    35.0000       260
    35.0200       244
    35.0400       276
    35.0600       256
    35.0800       270
    35.1000       246
    35.1200       242
    35.1400       264
    35.1600       276
    35.1800       248
    35.2000       280
    35.2200       236
    35.2400       264
    35.2600       262
    35.2800       264
    35.3000       240
    35.3200       246
    35.3400       262
    35.3600       266
    35.3800       270
    35.4000       274
    35.4200       238
    35.4400       272
    35.4600       250
    35.4800       256
    35.5000       272
    35.5200       246
    35.5400       234
    35.5600       260
    35.5800       246
    35.6000       272
    35.6200       254
    35.6400       238
    35.6600       264
    35.6800       246
    35.7000       246
    35.7200       264
    35.7400       228
    35.7600       242
    35.7800       228
    35.8000       234
    35.8200       238
    35.8400       248
    35.8600       248
    35.8800       244
    35.9000       266
    35.9200       284
    35.9400       212
    35.9600       254
    35.9800       268
    36.0000       256
    36.0200       254
    36.0400       270
    36.0600       258
    36.0800       266
    36.1000       240
    36.1200       238
    36.1400       260
    36.1600       280
    36.1800       250
    36.2000       238
    36.2200       232
    36.2400       252
    36.2600       242
    36.2800       240
    36.3000       244
    36.3200       230
    36.3400       240
    36.3600       250
    36.3800       246
    36.4000       248
    36.4200       254
    36.4400       262
    36.4600       260
    36.4800       226
    36.5000       228
    36.5200       248
    36.5400       262
    36.5600       224
    36.5800       216
    36.6000       224
    36.6200       236
    36.6400       246
    36.6600       224
    36.6800       230
    36.7000       226
    36.7200       232
    36.7400       234
    36.7600       238
    36.7800       208
    36.8000       200
    36.8200       218
    36.8400       224
    36.8600       246
    36.8800       214
    36.9000       234
    36.9200       232
    36.9400       204
    36.9600       226
    36.9800       214
    37.0000       224
    37.0200       200
    37.0400       232
    37.0600       208
    37.0800       204
    37.1000       212
    37.1200       212
    37.1400       206
    37.1600       240
    37.1800       222
    37.2000       230
    37.2200       192
    37.2400       232
    37.2600       212
    37.2800       214
    37.3000       218
    37.3200       204
    37.3400       212
    37.3600       196
    37.3800       208
    37.4000       190
    37.4200       200
    37.4400       212
    37.4600       202
    37.4800       200
    37.5000       204
    37.5200       190
    37.5400       190
    37.5600       194
    37.5800       186
    37.6000       194
    37.6200       196
    37.6400       206
    37.6600       200
    37.6800       186
    37.7000       222
    37.7200       194
    37.7400       204
    37.7600       220
    37.7800       196
    37.8000       220
    37.8200       198
    37.8400       204
    37.8600       198
    37.8800       178
    37.9000       212
    37.9200       188
    37.9400       210
    37.9600       200
    37.9800       222
    38.0000       200
    38.0200       180
    38.0400       194
    38.0600       198
    38.0800       190
    38.1000       198
    38.1200       172
    38.1400       210
    38.1600       174
    38.1800       202
    38.2000       180
    38.2200       194
    38.2400       172
    38.2600       194
    38.2800       196
    38.3000       172
    38.3200       188
    38.3400       178
    38.3600       180
    38.3800       172
    38.4000       172
    38.4200       178
    38.4400       186
    38.4600       184
    38.4800       172
    38.5000       182
    38.5200       148
    38.5400       166
    38.5600       188
    38.5800       168
    38.6000       182
    38.6200       188
    38.6400       194
    38.6600       194
    38.6800       186
    38.7000       158
    38.7200       212
    38.7400       174
    38.7600       170
    38.7800       182
    38.8000       200
    38.8200       160
    38.8400       194
    38.8600       172
    38.8800       174
    38.9000       180
    38.9200       176
    38.9400       174
    38.9600       190
    38.9800       184
    39.0000       190
    39.0200       164
    39.0400       152
    39.0600       168
    39.0800       180
    39.1000       206
    39.1200       180
    39.1400       174
    39.1600       182
    39.1800       168
    39.2000       156
    39.2200       166
    39.2400       150
    39.2600       174
    39.2800       158
    39.3000       168
    39.3200       192
    39.3400       148
    39.3600       158
    39.3800       164
    39.4000       172
    39.4200       168
    39.4400       164
    39.4600       142
    39.4800       172
    39.5000       166
    39.5200       162
    39.5400       162
    39.5600       136
    39.5800       136
    39.6000       158
    39.6200       162
    39.6400       150
    39.6600       158
    39.6800       176
    39.7000       146
    39.7200       172
    39.7400       174
    39.7600       190
    39.7800       154
    39.8000       158
    39.8200       164
    39.8400       152
    39.8600       158
    39.8800       148
    39.9000       168
    39.9200       180
    39.9400       176
    39.9600       132
    39.9800       164
    40.0000       156
    40.0200       190
    40.0400       148
    40.0600       160
    40.0800       154
    40.1000       134
    40.1200       170
    40.1400       162
    40.1600       166
    40.1800       154
    40.2000       192
    40.2200       166
    40.2400       156
    40.2600       152
    40.2800       170
    40.3000       152
    40.3200       176
    40.3400       154
    40.3600       156
    40.3800       158
    40.4000       146
    40.4200       162
    40.4400       158
    40.4600       136
    40.4800       172
    40.5000       158
    40.5200       156
    40.5400       168
    40.5600       158
    40.5800       142
    40.6000       178
    40.6200       152
    40.6400       140
    40.6600       148
    40.6800       146
    40.7000       136
    40.7200       148
    40.7400       138
    40.7600       136
    40.7800       148
    40.8000       156
    40.8200       134
    40.8400       150
    40.8600       162
    40.8800       164
    40.9000       142
    40.9200       158
    40.9400       160
    40.9600       124
    40.9800       142
    41.0000       124
    41.0200       162
    41.0400       152
    41.0600       124
    41.0800       138
    41.1000       144
    41.1200       146
    41.1400       134
    41.1600       138
    41.1800       128
    41.2000       154
    41.2200       126
    41.2400       130
    41.2600       146
    41.2800       160
    41.3000       150
    41.3200       126
    41.3400       168
    41.3600       140
    41.3800       132
    41.4000       140
    41.4200       132
    41.4400       124
    41.4600       128
    41.4800       120
    41.5000       110
    41.5200       142
    41.5400       138
    41.5600       124
    41.5800       140
    41.6000       122
    41.6200       144
    41.6400       136
    41.6600       132
    41.6800       120
    41.7000       136
    41.7200       140
    41.7400       140
    41.7600       144
    41.7800       122
    41.8000       126
    41.8200       144
    41.8400       138
    41.8600       120
    41.8800       134
    41.9000       128
    41.9200       124
    41.9400       120
    41.9600       132
    41.9800       126
    42.0000       134
    42.0200       132
    42.0400       112
    42.0600       138
    42.0800       130
    42.1000       122
    42.1200       132
    42.1400       142
    42.1600       152
    42.1800       110
    42.2000       130
    42.2200       124
    42.2400       104
    42.2600       140
    42.2800       128
    42.3000       138
    42.3200       122
    42.3400       136
    42.3600       124
    42.3800       120
    42.4000       120
    42.4200       118
    42.4400       104
    42.4600       126
    42.4800       124
    42.5000       116
    42.5200       122
    42.5400       130
    42.5600       128
    42.5800       118
    42.6000       118
    42.6200       154
    42.6400       116
    42.6600       140
    42.6800       118
    42.7000       134
    42.7200       118
    42.7400       138
    42.7600       118
    42.7800       110
    42.8000       106
    42.8200        96
    42.8400       122
    42.8600       110
    42.8800       102
    42.9000       138
    42.9200       102
    42.9400       114
    42.9600       118
    42.9800       116
    43.0000       148
    43.0200       106
    43.0400       114
    43.0600       130
    43.0800       110
    43.1000       126
    43.1200       106
    43.1400       112
    43.1600       116
    43.1800       102
    43.2000       110
    43.2200       112
    43.2400       122
    43.2600       108
    43.2800       142
    43.3000       112
    43.3200       142
    43.3400       114
    43.3600       116
    43.3800       106
    43.4000       126
    43.4200       110
    43.4400       116
    43.4600       130
    43.4800       120
    43.5000       120
    43.5200       124
    43.5400       122
    43.5600       108
    43.5800       126
    43.6000       136
    43.6200       128
    43.6400       100
    43.6600        90
    43.6800        94
    43.7000       106
    43.7200       114
    43.7400       136
    43.7600        94
    43.7800       106
    43.8000       112
    43.8200       114
    43.8400       110
    43.8600       126
    43.8800       106
    43.9000        88
    43.9200       126
    43.9400       110
    43.9600       100
    43.9800       124
    44.0000       120
    44.0200       130
    44.0400        98
    44.0600       106
    44.0800       120
    44.1000       106
    44.1200       104
    44.1400        88
    44.1600       128
    44.1800       102
    44.2000       118
    44.2200        88
    44.2400       102
    44.2600       122
    44.2800       102
    44.3000        96
    44.3200       106
    44.3400        96
    44.3600        98
    44.3800        92
    44.4000       118
    44.4200       112
    44.4400       132
    44.4600        80
    44.4800       114
    44.5000       106
    44.5200        98
    44.5400       110
    44.5600       104
    44.5800       110
    44.6000       102
    44.6200       114
    44.6400       106
    44.6600        94
    44.6800       104
    44.7000       110
    44.7200       114
    44.7400       100
    44.7600       126
    44.7800       120
    44.8000       106
    44.8200       122
    44.8400       104
    44.8600       100
    44.8800       108
    44.9000       108
    44.9200       100
    44.9400        88
    44.9600       106
    44.9800       124
    45.0000        94
    45.0200       100
    45.0400        86
    45.0600       104
    45.0800        88
    45.1000       110
    45.1200       116
    45.1400        94
    45.1600        96
    45.1800        86
    45.2000        94
    45.2200       104
    45.2400        82
    45.2600        98
    45.2800       110
    45.3000       112
    45.3200        92
    45.3400        88
    45.3600        94
    45.3800        88
    45.4000        92
    45.4200        86
    45.4400       100
    45.4600        92
    45.4800        96
    45.5000       118
    45.5200       102
    45.5400        98
    45.5600        94
    45.5800        88
    45.6000       102
    45.6200        88
    45.6400        98
    45.6600        94
    45.6800       100
    45.7000       120
    45.7200        86
    45.7400       122
    45.7600       102
    45.7800        88
    45.8000        84
    45.8200       106
    45.8400       106
    45.8600        94
    45.8800        90
    45.9000       114
    45.9200        96
    45.9400        98
    45.9600        80
    45.9800        68
    46.0000        78
    46.0200       112
    46.0400       102
    46.0600        88
    46.0800        90
    46.1000        92
    46.1200        90
    46.1400       106
    46.1600        74
    46.1800        86
    46.2000        94
    46.2200        86
    46.2400        86
    46.2600       108
    46.2800        88
    46.3000        86
    46.3200        78
    46.3400        96
    46.3600        84
    46.3800        86
    46.4000        88
    46.4200        90
    46.4400        84
    46.4600        90
    46.4800       108
    46.5000       100
    46.5200       118
    46.5400       100
    46.5600        94
    46.5800        90
    46.6000       100
    46.6200       102
    46.6400        82
    46.6600        88
    46.6800        82
    46.7000        88
    46.7200        72
    46.7400       114
    46.7600        84
    46.7800        82
    46.8000        96
    46.8200        94
    46.8400       100
    46.8600        96
    46.8800        84
    46.9000        92
    46.9200        72
    46.9400        84
    46.9600        86
    46.9800        90
    47.0000        68
    47.0200        78
    47.0400        88
    47.0600        82
    47.0800        84
    47.1000        94
    47.1200        92
    47.1400        86
    47.1600        80
    47.1800        62
    47.2000        88
    47.2200        94
    47.2400        72
    47.2600        88
    47.2800        90
    47.3000        96
    47.3200        84
    47.3400        76
    47.3600        82
    47.3800        70
    47.4000        90
    47.4200        86
    47.4400        78
    47.4600        70
    47.4800        96
    47.5000        80
    47.5200        68
    47.5400        82
    47.5600        76
    47.5800        82
    47.6000        96
    47.6200        76
    47.6400        78
    47.6600        76
    47.6800        92
    47.7000       106
    47.7200        98
    47.7400        68
    47.7600       104
    47.7800        86
    47.8000        80
    47.8200        72
    47.8400        82
    47.8600        94
    47.8800        72
    47.9000        72
    47.9200        86
    47.9400        82
    47.9600        72
    47.9800        80
    48.0000       100
    48.0200        86
    48.0400        84
    48.0600        76
    48.0800        80
    48.1000        82
    48.1200        86
    48.1400        82
    48.1600        82
    48.1800        74
    48.2000        88
    48.2200        92
    48.2400        92
    48.2600        80
    48.2800        76
    48.3000        70
    48.3200        90
    48.3400        86
    48.3600        84
    48.3800        80
    48.4000        64
    48.4200        86
    48.4400       100
    48.4600        92
    48.4800        66
    48.5000        84
    48.5200        88
    48.5400        84
    48.5600        76
    48.5800        82
    48.6000        74
    48.6200        70
    48.6400        92
    48.6600        90
    48.6800       100
    48.7000       104
    48.7200        66
    48.7400        88
    48.7600        68
    48.7800        70
    48.8000        76
    48.8200        74
    48.8400        74
    48.8600        88
    48.8800        90
    48.9000        98
    48.9200        74
    48.9400        78
    48.9600        80
    48.9800        92
    49.0000        76
    49.0200        88
    49.0400        98
    49.0600        98
    49.0800        76
    49.1000        84
    49.1200        80
    49.1400        68
    49.1600        82
    49.1800        86
    49.2000        84
    49.2200        74
    49.2400        74
    49.2600        76
    49.2800        70
    49.3000        82
    49.3200        90
    49.3400       100
    49.3600        84
    49.3800        66
    49.4000        76
    49.4200        82
    49.4400        72
    49.4600        74
    49.4800       102
    49.5000        90
    49.5200        78
    49.5400        90
    49.5600        96
    49.5800       100
    49.6000        86
    49.6200        80
    49.6400        86
    49.6600        82
    49.6800        72
    49.7000        72
    49.7200        66
    49.7400        88
    49.7600        82
    49.7800        62
    49.8000        78
    49.8200        84
    49.8400        92
    49.8600        62
    49.8800        80
    49.9000        90
    49.9200        92
    49.9400        74
    49.9600        88
    49.9800        72
    50.0000        70
    50.0200        80
    50.0400        78
    50.0600        60
    50.0800        70
    50.1000        78
    50.1200        88
    50.1400        80
    50.1600        72
    50.1800        70
    50.2000        76
    50.2200        74
    50.2400        76
    50.2600        84
    50.2800        70
    50.3000        76
    50.3200        92
    50.3400        78
    50.3600        78
    50.3800        78
    50.4000        88
    50.4200        90
    50.4400        80
    50.4600        80
    50.4800        74
    50.5000        88
    50.5200        90
    50.5400        82
    50.5600        78
    50.5800        60
    50.6000        78
    50.6200        80
    50.6400        86
    50.6600        70
    50.6800        80
    50.7000        76
    50.7200        96
    50.7400        76
    50.7600        94
    50.7800        78
    50.8000        84
    50.8200        88
    50.8400        68
    50.8600        84
    50.8800        84
    50.9000        70
    50.9200       100
    50.9400        90
    50.9600        74
    50.9800        86
    51.0000        64
    51.0200        94
    51.0400        68
    51.0600        88
    51.0800        90
    51.1000        70
    51.1200        64
    51.1400        70
    51.1600       102
    51.1800        86
    51.2000        90
    51.2200        92
    51.2400        78
    51.2600        76
    51.2800        74
    51.3000        90
    51.3200        72
    51.3400        70
    51.3600        88
    51.3800        88
    51.4000        72
    51.4200        90
    51.4400        66
    51.4600        72
    51.4800        74
    51.5000        92
    51.5200        90
    51.5400        86
    51.5600        84
    51.5800        80
    51.6000        92
    51.6200        92
    51.6400        76
    51.6600        80
    51.6800        98
    51.7000        94
    51.7200        78
    51.7400        84
    51.7600        86
    51.7800        76
    51.8000        78
    51.8200        82
    51.8400        88
    51.8600       100
    51.8800        90
    51.9000       106
    51.9200       112
    51.9400        76
    51.9600        82
    51.9800       100
    52.0000        82
    52.0200        96
    52.0400       104
    52.0600        96
    52.0800        94
    52.1000       100
    52.1200        94
    52.1400       120
    52.1600        96
    52.1800       110
    52.2000       100
    52.2200       112
    52.2400       102
    52.2600       106
    52.2800       104
    52.3000       108
    52.3200        96
    52.3400       100
    52.3600       112
    52.3800       104
    52.4000       106
    52.4200       112
    52.4400       122
    52.4600        90
    52.4800       120
    52.5000       110
    52.5200       106
    52.5400       110
    52.5600       102
    52.5800       108
    52.6000        98
    52.6200       112
    52.6400       104
    52.6600       122
    52.6800       102
    52.7000        88
    52.7200       110
    52.7400       118
    52.7600       118
    52.7800        94
    52.8000        90
    52.8200        98
    52.8400       104
    52.8600        98
    52.8800       102
    52.9000       100
    52.9200        98
    52.9400       118
    52.9600       100
    52.9800        88
    53.0000        92
    53.0200       108
    53.0400        98
    53.0600       100
    53.0800        84
    53.1000       112
    53.1200       104
    53.1400        94
    53.1600       106
    53.1800       102
    53.2000        94
    53.2200        94
    53.2400       118
    53.2600       106
    53.2800       102
    53.3000       110
    53.3200       108
    53.3400       104
    53.3600        98
    53.3800        90
    53.4000        94
    53.4200        82
    53.4400       120
    53.4600        98
    53.4800        92
    53.5000        90
    53.5200       122
    53.5400       102
    53.5600        90
    53.5800        82
    53.6000        90
    53.6200        94
    53.6400        94
    53.6600       104
    53.6800        92
    53.7000        90
    53.7200       118
    53.7400       112
    53.7600        80
    53.7800        80
    53.8000        94
    53.8200       104
    53.8400        86
    53.8600        98
    53.8800       104
    53.9000       124
    53.9200       122
    53.9400       102
    53.9600        86
    53.9800        86
    54.0000        88
    54.0200        92
    54.0400       104
    54.0600       114
    54.0800       118
    54.1000        98
    54.1200       104
    54.1400        94
    54.1600        94
    54.1800        96
    54.2000       104
    54.2200        84
    54.2400        82
    54.2600       112
    54.2800        94
    54.3000        80
    54.3200        92
    54.3400        96
    54.3600        92
    54.3800        98
    54.4000        98
    54.4200        86
    54.4400       104
    54.4600        92
    54.4800        98
    54.5000        86
    54.5200        90
    54.5400        90
    54.5600        92
    54.5800       100
    54.6000       110
    54.6200        98
    54.6400       102
    54.6600       112
    54.6800        84
    54.7000        80
    54.7200        94
    54.7400       100
    54.7600        98
    54.7800       108
    54.8000        86
    54.8200       100
    54.8400        86
    54.8600        90
    54.8800        86
    54.9000        96
    54.9200        90
    54.9400        92
    54.9600        94
    54.9800        90
    55.0000       104
    55.0200       104
    55.0400        88
    55.0600       106
    55.0800       104
    55.1000        90
    55.1200       104
    55.1400        88
    55.1600        86
    55.1800        90
    55.2000        94
    55.2200        86
    55.2400        90
    55.2600       100
    55.2800        78
    55.3000        96
    55.3200       104
    55.3400       100
    55.3600        94
    55.3800       112
    55.4000        86
    55.4200       102
    55.4400       100
    55.4600       110
    55.4800       106
    55.5000        92
    55.5200        92
    55.5400       114
    55.5600        86
    55.5800       102
    55.6000       104
    55.6200        94
    55.6400        86
    55.6600        82
    55.6800        92
    55.7000        94
    55.7200       112
    55.7400       104
    55.7600        96
    55.7800        96
    55.8000        94
    55.8200        94
    55.8400       114
    55.8600       104
    55.8800       100
    55.9000       108
    55.9200        94
    55.9400        88
    55.9600        88
    55.9800        98
    56.0000       106
    56.0200        90
    56.0400        96
    56.0600       112
    56.0800       116
    56.1000       100
    56.1200        96
    56.1400       106
    56.1600        92
    56.1800       102
    56.2000        90
    56.2200        88
    56.2400       106
    56.2600        80
    56.2800        92
    56.3000        84
    56.3200        90
    56.3400        96
    56.3600        98
    56.3800        92
    56.4000        90
    56.4200        84
    56.4400       124
    56.4600       102
    56.4800       102
    56.5000        86
    56.5200        76
    56.5400       102
    56.5600        94
    56.5800       100
    56.6000        94
    56.6200       116
    56.6400       118
    56.6600        96
    56.6800        78
    56.7000        80
    56.7200       102
    56.7400        94
    56.7600        80
    56.7800        88
    56.8000        94
    56.8200        82
    56.8400        88
    56.8600       102
    56.8800        90
    56.9000        86
    56.9200       116
    56.9400       102
    56.9600       104
    56.9800        94
    57.0000       102
    57.0200       108
    57.0400       100
    57.0600        98
    57.0800       104
    57.1000        76
    57.1200        92
    57.1400        90
    57.1600       106
    57.1800       116
    57.2000        94
    57.2200        90
    57.2400        96
    57.2600        84
    57.2800       116
    57.3000        76
    57.3200        76
    57.3400        82
    57.3600        80
    57.3800       124
    57.4000        94
    57.4200        88
    57.4400        92
    57.4600        88
    57.4800       100
    57.5000       100
    57.5200       102
    57.5400        92
    57.5600       102
    57.5800        92
    57.6000        92
    57.6200        98
    57.6400        88
    57.6600        92
    57.6800       100
    57.7000       100
    57.7200        92
    57.7400        92
    57.7600        74
    57.7800        88
    57.8000        92
    57.8200        90
    57.8400        92
    57.8600        92
    57.8800        92
    57.9000        70
    57.9200        92
    57.9400        98
    57.9600        94
    57.9800        94
    58.0000        94
    58.0200        86
    58.0400        98
    58.0600       100
    58.0800        90
    58.1000        94
    58.1200        82
    58.1400        92
    58.1600       102
    58.1800        84
    58.2000       100
    58.2200       106
    58.2400        90
    58.2600        94
    58.2800        70
    58.3000        94
    58.3200        98
    58.3400        84
    58.3600        64
    58.3800       106
    58.4000        98
    58.4200        94
    58.4400        92
    58.4600       104
    58.4800        96
    58.5000       114
    58.5200        90
    58.5400        96
    58.5600        90
    58.5800        90
    58.6000        94
    58.6200        92
    58.6400        96
    58.6600        90
    58.6800        96
    58.7000       104
    58.7200        82
    58.7400        88
    58.7600        84
    58.7800       102
    58.8000        90
    58.8200        92
    58.8400       100
    58.8600        88
    58.8800        98
    58.9000       100
    58.9200        80
    58.9400        90
    58.9600       112
    58.9800        84
    59.0000        96
    59.0200       100
    59.0400        96
    59.0600        80
    59.0800        82
    59.1000       116
    59.1200        96
    59.1400        88
    59.1600        92
    59.1800       108
    59.2000       108
    59.2200       112
    59.2400       120
    59.2600       108
    59.2800        94
    59.3000        90
    59.3200       118
    59.3400       118
    59.3600       126
    59.3800       128
    59.4000       114
    59.4200       118
    59.4400       106
    59.4600       150
    59.4800       140
    59.5000       168
    59.5200       160
    59.5400       160
    59.5600       178
    59.5800       142
    59.6000       202
    59.6200       216
    59.6400       218
    59.6600       246
    59.6800       222
    59.7000       242
    59.7200       306
    59.7400       302
    59.7600       290
    59.7800       314
    59.8000       330
    59.8200       370
    59.8400       336
    59.8600       394
    59.8800       402
    59.9000       404
    59.9200       412
    59.9400       438
    59.9600       402
    59.9800       408
    60.0000       412
    60.0200       416
    60.0400       384
    60.0600       400
    60.0800       386
    60.1000       362
    60.1200       366
    60.1400       346
    60.1600       336
    60.1800       326
    60.2000       302
    60.2200       306
    60.2400       300
    60.2600       276
    60.2800       300
    60.3000       262
    60.3200       212
    60.3400       240
    60.3600       248
    60.3800       214
    60.4000       230
    60.4200       222
    60.4400       210
    60.4600       214
    60.4800       208
    60.5000       218
    60.5200       152
    60.5400       176
    60.5600       168
    60.5800       186
    60.6000       166
    60.6200       192
    60.6400       180
    60.6600       178
    60.6800       170
    60.7000       174
    60.7200       166
    60.7400       190
    60.7600       152
    60.7800       178
    60.8000       152
    60.8200       152
    60.8400       166
    60.8600       146
    60.8800       146
    60.9000       150
    60.9200       162
    60.9400       154
    60.9600       146
    60.9800       152
    61.0000       124
    61.0200       148
    61.0400       150
    61.0600       134
    61.0800       150
    61.1000       108
    61.1200       146
    61.1400       146
    61.1600       134
    61.1800       132
    61.2000       136
    61.2200       116
    61.2400       120
    61.2600       106
    61.2800       142
    61.3000       136
    61.3200       114
    61.3400       140
    61.3600       128
    61.3800       110
    61.4000       134
    61.4200       136
    61.4400       138
    61.4600       118
    61.4800       110
    61.5000       126
    61.5200       128
    61.5400       104
    61.5600       122
    61.5800       124
    61.6000       132
    61.6200       112
    61.6400       106
    61.6600       102
    61.6800       110
    61.7000       120
    61.7200       102
    61.7400       118
    61.7600       112
    61.7800       132
    61.8000        98
    61.8200       118
    61.8400        98
    61.8600        94
    61.8800       134
    61.9000       118
    61.9200       108
    61.9400       124
    61.9600        96
    61.9800        90
    62.0000       104
    62.0200        96
    62.0400       108
    62.0600       104
    62.0800       102
    62.1000       122
    62.1200        96
    62.1400       108
    62.1600        90
    62.1800        86
    62.2000        88
    62.2200       116
    62.2400        88
    62.2600       104
    62.2800       110
    62.3000        92
    62.3200       118
    62.3400       108
    62.3600       100
    62.3800        98
    62.4000       106
    62.4200        76
    62.4400       102
    62.4600        84
    62.4800        86
    62.5000        86
    62.5200       100
    62.5400        98
    62.5600        84
    62.5800       106
    62.6000        98
    62.6200        86
    62.6400       108
    62.6600        94
    62.6800        84
    62.7000       100
    62.7200        98
    62.7400        94
    62.7600        88
    62.7800        94
    62.8000       102
    62.8200        96
    62.8400       106
    62.8600       104
    62.8800        84
    62.9000       100
    62.9200       106
    62.9400        90
    62.9600        86
    62.9800        78
    63.0000        82
    63.0200        74
    63.0400        78
    63.0600        84
    63.0800        98
    63.1000        94
    63.1200        84
    63.1400       106
    63.1600       108
    63.1800        72
    63.2000        84
    63.2200        86
    63.2400        84
    63.2600        92
    63.2800        78
    63.3000       106
    63.3200        88
    63.3400        98
    63.3600        84
    63.3800       106
    63.4000        98
    63.4200       106
    63.4400        96
    63.4600        88
    63.4800        88
    63.5000        84
    63.5200        82
    63.5400        84
    63.5600        82
    63.5800        74
    63.6000        90
    63.6200        88
    63.6400        80
    63.6600        76
    63.6800       128
    63.7000        92
    63.7200       102
    63.7400       104
    63.7600        84
    63.7800        74
    63.8000        92
    63.8200        82
    63.8400        68
    63.8600       100
    63.8800        82
    63.9000        76
    63.9200        88
    63.9400        92
    63.9600        76
    63.9800        84
    64.0000        90
    64.0200        82
    64.0400        78
    64.0600        94
    64.0800        86
    64.1000        86
    64.1200        94
    64.1400        86
    64.1600       106
    64.1800        82
    64.2000        94
    64.2200        98
    64.2400        76
    64.2600        86
    64.2800       114
    64.3000        94
    64.3200       108
    64.3400       102
    64.3600        80
    64.3800        78
    64.4000        84
    64.4200        86
    64.4400        94
    64.4600        76
    64.4800        74
    64.5000        88
    64.5200        84
    64.5400        96
    64.5600        76
    64.5800       102
    64.6000        86
    64.6200        78
    64.6400        80
    64.6600        88
    64.6800        76
    64.7000        64
    64.7200        84
    64.7400        80
    64.7600        88
    64.7800        94
    64.8000        88
    64.8200       102
    64.8400        84
    64.8600        96
    64.8800        94
    64.9000        88
    64.9200        90
    64.9400        82
    64.9600       102
    64.9800        84
    65.0000        86
