/////////////////////////////////////////////////////////////////////////////////
/// Profile Data Ascii Dump (XRD)                                             ///
/////////////////////////////////////////////////////////////////////////////////

  Group     : Swayze
  Data      : GDS2
  File Name : GDS2.RAW

# Profile Datafile
          comment             = Clinoptilolite 
          date & time         = 08-03-24 06:47:01 

# Measurement Condition
    X-ray tube
          target              = Cu 
          voltage             = 40.0 (kV)
          current             = 30.0 (mA)
    Slits
          divergence slit     = 2.00000 (deg) 
          scatter slit        = 2.00000 (deg) 
          receiving slit      = 0.15000 (mm)  
    Scanning
          drive axis          = Theta-2Theta 
          scan range          =    4.000 -   65.000 
          scan mode           = Continuous Scan 
          scan speed          =   2.0000 (deg/min) 
          sampling pitch      =   0.0200 (deg) 
          preset time         =   0.60 (sec) 

# Data      [ Total No. = 3051 ]
  <2Theta>   <   I   >
     4.0000       182
     4.0200       186
     4.0400       214
     4.0600       172
     4.0800       186
     4.1000       212
     4.1200       204
     4.1400       186
     4.1600       172
     4.1800       186
     4.2000       208
     4.2200       180
     4.2400       168
     4.2600       186
     4.2800       168
     4.3000       180
     4.3200       168
     4.3400       186
     4.3600       190
     4.3800       188
     4.4000       174
     4.4200       174
     4.4400       168
     4.4600       148
     4.4800       202
     4.5000       188
     4.5200       180
     4.5400       176
     4.5600       154
     4.5800       178
     4.6000       186
     4.6200       162
     4.6400       206
     4.6600       182
     4.6800       184
     4.7000       182
     4.7200       172
     4.7400       174
     4.7600       170
     4.7800       184
     4.8000       196
     4.8200       162
     4.8400       166
     4.8600       158
     4.8800       186
     4.9000       178
     4.9200       164
     4.9400       152
     4.9600       156
     4.9800       168
     5.0000       204
     5.0200       164
     5.0400       148
     5.0600       184
     5.0800       158
     5.1000       162
     5.1200       156
     5.1400       148
     5.1600       162
     5.1800       184
     5.2000       178
     5.2200       152
     5.2400       176
     5.2600       182
     5.2800       168
     5.3000       156
     5.3200       168
     5.3400       190
     5.3600       166
     5.3800       178
     5.4000       190
     5.4200       148
     5.4400       168
     5.4600       156
     5.4800       150
     5.5000       180
     5.5200       160
     5.5400       166
     5.5600       142
     5.5800       180
     5.6000       156
     5.6200       188
     5.6400       188
     5.6600       146
     5.6800       158
     5.7000       162
     5.7200       160
     5.7400       180
     5.7600       160
     5.7800       176
     5.8000       156
     5.8200       164
     5.8400       174
     5.8600       174
     5.8800       158
     5.9000       154
     5.9200       174
     5.9400       152
     5.9600       158
     5.9800       184
     6.0000       166
     6.0200       164
     6.0400       160
     6.0600       182
     6.0800       204
     6.1000       158
     6.1200       168
     6.1400       132
     6.1600       156
     6.1800       156
     6.2000       160
     6.2200       170
     6.2400       156
     6.2600       166
     6.2800       148
     6.3000       146
     6.3200       130
     6.3400       144
     6.3600       156
     6.3800       150
     6.4000       150
     6.4200       128
     6.4400       172
     6.4600       144
     6.4800       170
     6.5000       152
     6.5200       142
     6.5400       164
     6.5600       146
     6.5800       120
     6.6000       140
     6.6200       146
     6.6400       150
     6.6600       124
     6.6800       118
     6.7000       144
     6.7200       144
     6.7400       122
     6.7600       140
     6.7800       124
     6.8000       134
     6.8200       132
     6.8400       152
     6.8600       136
     6.8800       154
     6.9000       128
     6.9200       134
     6.9400       134
     6.9600       136
     6.9800       130
     7.0000       126
     7.0200       124
     7.0400       128
     7.0600       118
     7.0800       138
     7.1000       156
     7.1200       124
     7.1400       122
     7.1600       138
     7.1800       114
     7.2000       138
     7.2200       142
     7.2400       142
     7.2600       134
     7.2800       116
     7.3000       144
     7.3200       126
     7.3400       156
     7.3600       144
     7.3800       126
     7.4000       146
     7.4200       112
     7.4400       122
     7.4600       134
     7.4800       120
     7.5000       130
     7.5200       142
     7.5400       118
     7.5600       112
     7.5800       116
     7.6000       112
     7.6200       120
     7.6400       130
     7.6600       122
     7.6800       118
     7.7000       136
     7.7200       100
     7.7400       112
     7.7600       122
     7.7800       142
     7.8000       120
     7.8200       148
     7.8400       130
     7.8600       124
     7.8800       126
     7.9000       128
     7.9200       120
     7.9400       128
     7.9600        96
     7.9800       118
     8.0000       132
     8.0200       114
     8.0400       120
     8.0600       122
     8.0800       138
     8.1000       124
     8.1200       134
     8.1400       124
     8.1600       136
     8.1800       134
     8.2000       124
     8.2200       120
     8.2400       142
     8.2600       134
     8.2800       118
     8.3000       110
     8.3200       122
     8.3400       118
     8.3600       138
     8.3800       128
     8.4000       126
     8.4200       140
     8.4400       122
     8.4600       114
     8.4800       132
     8.5000       114
     8.5200       136
     8.5400       112
     8.5600       124
     8.5800       124
     8.6000       124
     8.6200       124
     8.6400       106
     8.6600       136
     8.6800       130
     8.7000       136
     8.7200       118
     8.7400       148
     8.7600       130
     8.7800       138
     8.8000       124
     8.8200       134
     8.8400       118
     8.8600       112
     8.8800       116
     8.9000       124
     8.9200       122
     8.9400       126
     8.9600       120
     8.9800       156
     9.0000       120
     9.0200       136
     9.0400       122
     9.0600       132
     9.0800       112
     9.1000       148
     9.1200       156
     9.1400       154
     9.1600       128
     9.1800       150
     9.2000       148
     9.2200       140
     9.2400       138
     9.2600       138
     9.2800       162
     9.3000       184
     9.3200       164
     9.3400       156
     9.3600       172
     9.3800       174
     9.4000       186
     9.4200       202
     9.4400       170
     9.4600       216
     9.4800       240
     9.5000       196
     9.5200       222
     9.5400       266
     9.5600       232
     9.5800       266
     9.6000       268
     9.6200       306
     9.6400       336
     9.6600       336
     9.6800       420
     9.7000       432
     9.7200       534
     9.7400       536
     9.7600       644
     9.7800       696
     9.8000       716
     9.8200       724
     9.8400       692
     9.8600       624
     9.8800       472
     9.9000       344
     9.9200       256
     9.9400       234
     9.9600       168
     9.9800       140
    10.0000       138
    10.0200       142
    10.0400       132
    10.0600       162
    10.0800       128
    10.1000       130
    10.1200       126
    10.1400       124
    10.1600       142
    10.1800       114
    10.2000       124
    10.2200       122
    10.2400       108
    10.2600       118
    10.2800       116
    10.3000       106
    10.3200       112
    10.3400       122
    10.3600       100
    10.3800       112
    10.4000       112
    10.4200       102
    10.4400       128
    10.4600       108
    10.4800       122
    10.5000       134
    10.5200       118
    10.5400       116
    10.5600       106
    10.5800       142
    10.6000       130
    10.6200       132
    10.6400       146
    10.6600       122
    10.6800       136
    10.7000       124
    10.7200       132
    10.7400       154
    10.7600       172
    10.7800       150
    10.8000       150
    10.8200       148
    10.8400       178
    10.8600       202
    10.8800       178
    10.9000       214
    10.9200       220
    10.9400       222
    10.9600       224
    10.9800       284
    11.0000       330
    11.0200       338
    11.0400       364
    11.0600       472
    11.0800       528
    11.1000       480
    11.1200       426
    11.1400       328
    11.1600       252
    11.1800       192
    11.2000       188
    11.2200       164
    11.2400       112
    11.2600       128
    11.2800        90
    11.3000       106
    11.3200       122
    11.3400       112
    11.3600       106
    11.3800       114
    11.4000        90
    11.4200        78
    11.4400        98
    11.4600        90
    11.4800        90
    11.5000        82
    11.5200       100
    11.5400       126
    11.5600        86
    11.5800        82
    11.6000        92
    11.6200        88
    11.6400        92
    11.6600        78
    11.6800        98
    11.7000        82
    11.7200        88
    11.7400        88
    11.7600        86
    11.7800        78
    11.8000        78
    11.8200        90
    11.8400        78
    11.8600        94
    11.8800        90
    11.9000        82
    11.9200        86
    11.9400        90
    11.9600        76
    11.9800       100
    12.0000        92
    12.0200        82
    12.0400        66
    12.0600        84
    12.0800       104
    12.1000        86
    12.1200        96
    12.1400        98
    12.1600        84
    12.1800       104
    12.2000        80
    12.2200        88
    12.2400        80
    12.2600        98
    12.2800        80
    12.3000        74
    12.3200        78
    12.3400        78
    12.3600       100
    12.3800       120
    12.4000        88
    12.4200        76
    12.4400        96
    12.4600        84
    12.4800        88
    12.5000        84
    12.5200        86
    12.5400       110
    12.5600        90
    12.5800        88
    12.6000        94
    12.6200       110
    12.6400       100
    12.6600       108
    12.6800        92
    12.7000       122
    12.7200       124
    12.7400       102
    12.7600       116
    12.7800       142
    12.8000       134
    12.8200       142
    12.8400       140
    12.8600       164
    12.8800       160
    12.9000       168
    12.9200       146
    12.9400       166
    12.9600       172
    12.9800       174
    13.0000       176
    13.0200       170
    13.0400       138
    13.0600       122
    13.0800       114
    13.1000       102
    13.1200        98
    13.1400        88
    13.1600       120
    13.1800       102
    13.2000       112
    13.2200       118
    13.2400       104
    13.2600       118
    13.2800       100
    13.3000       104
    13.3200        90
    13.3400       112
    13.3600        76
    13.3800        82
    13.4000        82
    13.4200        84
    13.4400        82
    13.4600        90
    13.4800        86
    13.5000        62
    13.5200        66
    13.5400        96
    13.5600        78
    13.5800        82
    13.6000        76
    13.6200       102
    13.6400        96
    13.6600       106
    13.6800        72
    13.7000       102
    13.7200        92
    13.7400        70
    13.7600        84
    13.7800        90
    13.8000        86
    13.8200        68
    13.8400        80
    13.8600        74
    13.8800        72
    13.9000        80
    13.9200        70
    13.9400        68
    13.9600        88
    13.9800        62
    14.0000        72
    14.0200        74
    14.0400        72
    14.0600        78
    14.0800        74
    14.1000        76
    14.1200        72
    14.1400        76
    14.1600        70
    14.1800        64
    14.2000        68
    14.2200        84
    14.2400        64
    14.2600        76
    14.2800        84
    14.3000        76
    14.3200        82
    14.3400        72
    14.3600        68
    14.3800        68
    14.4000        74
    14.4200        76
    14.4400        64
    14.4600        68
    14.4800        80
    14.5000        78
    14.5200        80
    14.5400        86
    14.5600        70
    14.5800        76
    14.6000        94
    14.6200        78
    14.6400        78
    14.6600       100
    14.6800        88
    14.7000        80
    14.7200        96
    14.7400        98
    14.7600       106
    14.7800       114
    14.8000       132
    14.8200       126
    14.8400       132
    14.8600       162
    14.8800       156
    14.9000       114
    14.9200       142
    14.9400       112
    14.9600        84
    14.9800        68
    15.0000        66
    15.0200        62
    15.0400        76
    15.0600        92
    15.0800        88
    15.1000        72
    15.1200        68
    15.1400        84
    15.1600        66
    15.1800        70
    15.2000        80
    15.2200        68
    15.2400        74
    15.2600        74
    15.2800        74
    15.3000        68
    15.3200        66
    15.3400        66
    15.3600        64
    15.3800        74
    15.4000        72
    15.4200        78
    15.4400        62
    15.4600        88
    15.4800        74
    15.5000        68
    15.5200        50
    15.5400        72
    15.5600        78
    15.5800        82
    15.6000        66
    15.6200        66
    15.6400        62
    15.6600        70
    15.6800        60
    15.7000        84
    15.7200        86
    15.7400        88
    15.7600        84
    15.7800        86
    15.8000        66
    15.8200        96
    15.8400        64
    15.8600        88
    15.8800        76
    15.9000        78
    15.9200        68
    15.9400        68
    15.9600        66
    15.9800        76
    16.0000        66
    16.0200        72
    16.0400        72
    16.0600        76
    16.0800        86
    16.1000        72
    16.1200        72
    16.1400        78
    16.1600        64
    16.1800        72
    16.2000        74
    16.2200        68
    16.2400        70
    16.2600        70
    16.2800        82
    16.3000        72
    16.3200        68
    16.3400        72
    16.3600        64
    16.3800        78
    16.4000        78
    16.4200        74
    16.4400        82
    16.4600        90
    16.4800        80
    16.5000        90
    16.5200        96
    16.5400        98
    16.5600        76
    16.5800        80
    16.6000       102
    16.6200       102
    16.6400       104
    16.6600        84
    16.6800       116
    16.7000        94
    16.7200       114
    16.7400       130
    16.7600       132
    16.7800       146
    16.8000       150
    16.8200       182
    16.8400       166
    16.8600       172
    16.8800       168
    16.9000       150
    16.9200       138
    16.9400       136
    16.9600       142
    16.9800       120
    17.0000       134
    17.0200       124
    17.0400       142
    17.0600       178
    17.0800       152
    17.1000       166
    17.1200       202
    17.1400       240
    17.1600       276
    17.1800       298
    17.2000       358
    17.2200       356
    17.2400       360
    17.2600       356
    17.2800       312
    17.3000       280
    17.3200       216
    17.3400       190
    17.3600       176
    17.3800       142
    17.4000       122
    17.4200       122
    17.4400       108
    17.4600       122
    17.4800       108
    17.5000       102
    17.5200        90
    17.5400        96
    17.5600        72
    17.5800        80
    17.6000        62
    17.6200        58
    17.6400        84
    17.6600        68
    17.6800        70
    17.7000        78
    17.7200        68
    17.7400        64
    17.7600        68
    17.7800        70
    17.8000        62
    17.8200        64
    17.8400        80
    17.8600        68
    17.8800        54
    17.9000        48
    17.9200        68
    17.9400        62
    17.9600        78
    17.9800        66
    18.0000        66
    18.0200        64
    18.0400        88
    18.0600        66
    18.0800        64
    18.1000        68
    18.1200        82
    18.1400        78
    18.1600        78
    18.1800        78
    18.2000        52
    18.2200        74
    18.2400        68
    18.2600        62
    18.2800        62
    18.3000        84
    18.3200        70
    18.3400        56
    18.3600        64
    18.3800        82
    18.4000        70
    18.4200        74
    18.4400        70
    18.4600        92
    18.4800        68
    18.5000        74
    18.5200        72
    18.5400        64
    18.5600        78
    18.5800        68
    18.6000        64
    18.6200        72
    18.6400        84
    18.6600        86
    18.6800        74
    18.7000        76
    18.7200        94
    18.7400        98
    18.7600        88
    18.7800       106
    18.8000       126
    18.8200       112
    18.8400       112
    18.8600       120
    18.8800       142
    18.9000       150
    18.9200       182
    18.9400       198
    18.9600       184
    18.9800       250
    19.0000       212
    19.0200       222
    19.0400       234
    19.0600       214
    19.0800       202
    19.1000       166
    19.1200       166
    19.1400       116
    19.1600       116
    19.1800        86
    19.2000        76
    19.2200        76
    19.2400        86
    19.2600        82
    19.2800        68
    19.3000        80
    19.3200        88
    19.3400        84
    19.3600        76
    19.3800        88
    19.4000        86
    19.4200        78
    19.4400        82
    19.4600        80
    19.4800        76
    19.5000        74
    19.5200        92
    19.5400        86
    19.5600        68
    19.5800        66
    19.6000        94
    19.6200        86
    19.6400        86
    19.6600       104
    19.6800        96
    19.7000        80
    19.7200        82
    19.7400        84
    19.7600        80
    19.7800        62
    19.8000        68
    19.8200        76
    19.8400       108
    19.8600        88
    19.8800        90
    19.9000        86
    19.9200        76
    19.9400        80
    19.9600        80
    19.9800        68
    20.0000        88
    20.0200        82
    20.0400        74
    20.0600       100
    20.0800        94
    20.1000        92
    20.1200       106
    20.1400       100
    20.1600       116
    20.1800       114
    20.2000       114
    20.2200       118
    20.2400       116
    20.2600       164
    20.2800       160
    20.3000       150
    20.3200       166
    20.3400       164
    20.3600       162
    20.3800       156
    20.4000       136
    20.4200       116
    20.4400       100
    20.4600       100
    20.4800       102
    20.5000        98
    20.5200        76
    20.5400        98
    20.5600       104
    20.5800       100
    20.6000        98
    20.6200        86
    20.6400       100
    20.6600        74
    20.6800        76
    20.7000        98
    20.7200        78
    20.7400        84
    20.7600        74
    20.7800        90
    20.8000        84
    20.8200        98
    20.8400        86
    20.8600       100
    20.8800        74
    20.9000        98
    20.9200        98
    20.9400        92
    20.9600       104
    20.9800        98
    21.0000        92
    21.0200       100
    21.0400       108
    21.0600        82
    21.0800       102
    21.1000        96
    21.1200       100
    21.1400        90
    21.1600       106
    21.1800       100
    21.2000       104
    21.2200        98
    21.2400       106
    21.2600       106
    21.2800       116
    21.3000       132
    21.3200        92
    21.3400       148
    21.3600       122
    21.3800       146
    21.4000       114
    21.4200       164
    21.4400       132
    21.4600       156
    21.4800       146
    21.5000       156
    21.5200       152
    21.5400       168
    21.5600       156
    21.5800       172
    21.6000       148
    21.6200       168
    21.6400       164
    21.6600       174
    21.6800       154
    21.7000       172
    21.7200       182
    21.7400       192
    21.7600       194
    21.7800       184
    21.8000       184
    21.8200       172
    21.8400       192
    21.8600       202
    21.8800       206
    21.9000       186
    21.9200       190
    21.9400       194
    21.9600       202
    21.9800       248
    22.0000       236
    22.0200       222
    22.0400       260
    22.0600       270
    22.0800       306
    22.1000       402
    22.1200       408
    22.1400       480
    22.1600       542
    22.1800       598
    22.2000       708
    22.2200       812
    22.2400       854
    22.2600       962
    22.2800       950
    22.3000      1080
    22.3200      1038
    22.3400      1024
    22.3600      1042
    22.3800      1002
    22.4000       994
    22.4200       898
    22.4400       780
    22.4600       742
    22.4800       658
    22.5000       580
    22.5200       552
    22.5400       484
    22.5600       452
    22.5800       488
    22.6000       464
    22.6200       480
    22.6400       458
    22.6600       476
    22.6800       524
    22.7000       546
    22.7200       478
    22.7400       480
    22.7600       436
    22.7800       406
    22.8000       348
    22.8200       356
    22.8400       302
    22.8600       258
    22.8800       234
    22.9000       228
    22.9200       190
    22.9400       152
    22.9600       146
    22.9800       138
    23.0000       138
    23.0200       146
    23.0400       160
    23.0600       162
    23.0800       154
    23.1000       128
    23.1200       130
    23.1400       150
    23.1600       118
    23.1800       104
    23.2000       100
    23.2200        92
    23.2400        98
    23.2600       116
    23.2800        88
    23.3000        82
    23.3200        96
    23.3400        74
    23.3600        94
    23.3800        90
    23.4000        90
    23.4200        74
    23.4400        88
    23.4600        96
    23.4800       102
    23.5000        80
    23.5200       100
    23.5400       106
    23.5600        88
    23.5800        98
    23.6000       104
    23.6200       116
    23.6400        96
    23.6600       108
    23.6800       114
    23.7000       116
    23.7200       116
    23.7400       142
    23.7600       122
    23.7800       154
    23.8000       142
    23.8200       152
    23.8400       164
    23.8600       158
    23.8800       148
    23.9000       148
    23.9200       166
    23.9400       124
    23.9600       128
    23.9800       122
    24.0000       110
    24.0200        98
    24.0400       104
    24.0600        84
    24.0800        86
    24.1000        76
    24.1200        88
    24.1400        88
    24.1600        74
    24.1800        60
    24.2000        96
    24.2200        70
    24.2400        84
    24.2600        72
    24.2800        70
    24.3000        66
    24.3200        70
    24.3400        64
    24.3600        60
    24.3800        86
    24.4000        84
    24.4200        80
    24.4400        80
    24.4600        72
    24.4800        72
    24.5000        60
    24.5200        84
    24.5400        74
    24.5600        90
    24.5800        70
    24.6000        82
    24.6200        68
    24.6400        94
    24.6600        84
    24.6800        72
    24.7000        64
    24.7200        88
    24.7400        80
    24.7600        96
    24.7800        90
    24.8000       138
    24.8200       132
    24.8400       138
    24.8600       164
    24.8800       184
    24.9000       226
    24.9200       214
    24.9400       284
    24.9600       220
    24.9800       230
    25.0000       232
    25.0200       214
    25.0400       200
    25.0600       158
    25.0800       148
    25.1000       124
    25.1200       126
    25.1400       118
    25.1600       112
    25.1800       120
    25.2000       106
    25.2200       104
    25.2400        84
    25.2600       102
    25.2800        90
    25.3000       108
    25.3200       108
    25.3400        88
    25.3600        76
    25.3800        90
    25.4000       102
    25.4200       140
    25.4400       148
    25.4600       138
    25.4800       144
    25.5000       144
    25.5200       154
    25.5400       142
    25.5600       166
    25.5800       164
    25.6000       158
    25.6200       170
    25.6400       160
    25.6600       182
    25.6800       184
    25.7000       160
    25.7200       178
    25.7400       164
    25.7600       200
    25.7800       200
    25.8000       246
    25.8200       212
    25.8400       278
    25.8600       362
    25.8800       372
    25.9000       408
    25.9200       436
    25.9400       480
    25.9600       428
    25.9800       454
    26.0000       380
    26.0200       398
    26.0400       362
    26.0600       282
    26.0800       300
    26.1000       268
    26.1200       258
    26.1400       260
    26.1600       274
    26.1800       292
    26.2000       310
    26.2200       302
    26.2400       276
    26.2600       274
    26.2800       226
    26.3000       194
    26.3200       148
    26.3400       136
    26.3600       104
    26.3800       108
    26.4000       128
    26.4200       100
    26.4400        90
    26.4600        86
    26.4800       122
    26.5000        90
    26.5200       114
    26.5400       112
    26.5600       134
    26.5800       128
    26.6000       132
    26.6200       132
    26.6400       158
    26.6600       174
    26.6800       178
    26.7000       226
    26.7200       218
    26.7400       200
    26.7600       208
    26.7800       206
    26.8000       178
    26.8200       146
    26.8400       152
    26.8600       130
    26.8800       116
    26.9000       108
    26.9200        96
    26.9400        82
    26.9600        80
    26.9800        88
    27.0000        90
    27.0200        82
    27.0400        74
    27.0600        82
    27.0800        80
    27.1000        80
    27.1200        62
    27.1400        82
    27.1600        72
    27.1800        82
    27.2000        72
    27.2200        64
    27.2400        78
    27.2600        82
    27.2800        84
    27.3000        86
    27.3200        82
    27.3400       104
    27.3600       106
    27.3800        98
    27.4000       110
    27.4200       116
    27.4400        94
    27.4600        88
    27.4800       104
    27.5000        82
    27.5200       108
    27.5400        98
    27.5600       154
    27.5800       212
    27.6000       242
    27.6200       250
    27.6400       198
    27.6600       218
    27.6800       194
    27.7000       158
    27.7200       142
    27.7400       122
    27.7600       142
    27.7800       124
    27.8000       152
    27.8200       160
    27.8400       144
    27.8600       186
    27.8800       176
    27.9000       192
    27.9200       194
    27.9400       226
    27.9600       266
    27.9800       290
    28.0000       346
    28.0200       356
    28.0400       388
    28.0600       436
    28.0800       436
    28.1000       406
    28.1200       376
    28.1400       348
    28.1600       288
    28.1800       278
    28.2000       238
    28.2200       184
    28.2400       166
    28.2600       162
    28.2800       126
    28.3000       154
    28.3200       142
    28.3400       126
    28.3600       132
    28.3800       162
    28.4000       160
    28.4200       168
    28.4400       194
    28.4600       212
    28.4800       232
    28.5000       266
    28.5200       218
    28.5400       298
    28.5600       264
    28.5800       222
    28.6000       258
    28.6200       208
    28.6400       212
    28.6600       182
    28.6800       216
    28.7000       176
    28.7200       150
    28.7400       166
    28.7600       170
    28.7800       146
    28.8000       154
    28.8200       162
    28.8400       166
    28.8600       210
    28.8800       218
    28.9000       224
    28.9200       220
    28.9400       250
    28.9600       258
    28.9800       270
    29.0000       250
    29.0200       240
    29.0400       206
    29.0600       170
    29.0800       160
    29.1000       142
    29.1200       136
    29.1400       128
    29.1600       108
    29.1800        96
    29.2000        90
    29.2200        92
    29.2400        94
    29.2600       130
    29.2800        98
    29.3000       106
    29.3200       114
    29.3400       112
    29.3600       110
    29.3800       142
    29.4000       134
    29.4200       154
    29.4400       144
    29.4600       156
    29.4800       138
    29.5000       142
    29.5200       148
    29.5400       142
    29.5600       152
    29.5800       156
    29.6000       172
    29.6200       174
    29.6400       164
    29.6600       232
    29.6800       228
    29.7000       256
    29.7200       260
    29.7400       294
    29.7600       278
    29.7800       308
    29.8000       296
    29.8200       356
    29.8400       334
    29.8600       390
    29.8800       450
    29.9000       434
    29.9200       474
    29.9400       504
    29.9600       512
    29.9800       542
    30.0000       502
    30.0200       520
    30.0400       526
    30.0600       548
    30.0800       508
    30.1000       484
    30.1200       518
    30.1400       462
    30.1600       430
    30.1800       350
    30.2000       328
    30.2200       324
    30.2400       256
    30.2600       240
    30.2800       236
    30.3000       200
    30.3200       190
    30.3400       150
    30.3600       146
    30.3800       156
    30.4000       120
    30.4200       112
    30.4400        96
    30.4600        96
    30.4800        88
    30.5000        82
    30.5200        88
    30.5400        74
    30.5600        76
    30.5800        64
    30.6000        72
    30.6200        74
    30.6400        82
    30.6600        74
    30.6800        72
    30.7000        72
    30.7200        94
    30.7400        76
    30.7600        60
    30.7800        74
    30.8000        76
    30.8200        72
    30.8400        76
    30.8600        78
    30.8800        72
    30.9000        90
    30.9200        62
    30.9400        76
    30.9600        72
    30.9800        84
    31.0000        70
    31.0200        66
    31.0400        68
    31.0600        70
    31.0800        68
    31.1000        70
    31.1200        60
    31.1400        66
    31.1600        64
    31.1800        84
    31.2000        68
    31.2200        80
    31.2400        70
    31.2600        74
    31.2800        82
    31.3000        82
    31.3200        72
    31.3400        94
    31.3600        66
    31.3800        76
    31.4000        74
    31.4200        82
    31.4400        90
    31.4600        76
    31.4800        52
    31.5000        64
    31.5200        92
    31.5400        76
    31.5600        72
    31.5800        70
    31.6000        90
    31.6200        98
    31.6400        92
    31.6600       120
    31.6800       126
    31.7000       114
    31.7200       120
    31.7400       170
    31.7600       188
    31.7800       220
    31.8000       248
    31.8200       330
    31.8400       334
    31.8600       368
    31.8800       400
    31.9000       402
    31.9200       450
    31.9400       442
    31.9600       412
    31.9800       388
    32.0000       346
    32.0200       296
    32.0400       226
    32.0600       202
    32.0800       168
    32.1000       152
    32.1200       130
    32.1400       120
    32.1600       114
    32.1800       106
    32.2000        74
    32.2200        76
    32.2400        86
    32.2600       102
    32.2800        72
    32.3000        84
    32.3200       106
    32.3400        92
    32.3600        68
    32.3800        92
    32.4000        90
    32.4200        92
    32.4400        76
    32.4600       108
    32.4800        90
    32.5000       100
    32.5200       122
    32.5400       158
    32.5600       136
    32.5800       144
    32.6000       162
    32.6200       150
    32.6400       156
    32.6600       164
    32.6800       206
    32.7000       226
    32.7200       208
    32.7400       224
    32.7600       242
    32.7800       228
    32.8000       242
    32.8200       214
    32.8400       240
    32.8600       230
    32.8800       220
    32.9000       182
    32.9200       194
    32.9400       178
    32.9600       152
    32.9800       124
    33.0000       114
    33.0200        98
    33.0400       108
    33.0600        86
    33.0800        86
    33.1000       102
    33.1200        88
    33.1400        82
    33.1600        66
    33.1800        70
    33.2000        88
    33.2200        80
    33.2400        86
    33.2600        86
    33.2800        78
    33.3000        96
    33.3200       110
    33.3400       126
    33.3600       128
    33.3800       126
    33.4000       136
    33.4200       108
    33.4400       120
    33.4600       108
    33.4800       120
    33.5000       104
    33.5200        94
    33.5400       102
    33.5600        92
    33.5800        70
    33.6000        76
    33.6200        66
    33.6400        78
    33.6600        76
    33.6800        74
    33.7000        62
    33.7200        62
    33.7400        68
    33.7600        68
    33.7800        64
    33.8000        56
    33.8200        70
    33.8400        58
    33.8600        52
    33.8800        52
    33.9000        66
    33.9200        58
    33.9400        46
    33.9600        78
    33.9800        76
    34.0000        58
    34.0200        78
    34.0400        64
    34.0600        52
    34.0800        66
    34.1000        54
    34.1200        60
    34.1400        58
    34.1600        74
    34.1800        74
    34.2000        72
    34.2200        66
    34.2400        54
    34.2600        54
    34.2800        50
    34.3000        66
    34.3200        60
    34.3400        58
    34.3600        72
    34.3800        64
    34.4000        68
    34.4200        60
    34.4400        78
    34.4600        70
    34.4800        74
    34.5000        66
    34.5200        54
    34.5400        74
    34.5600        68
    34.5800        70
    34.6000        70
    34.6200        58
    34.6400        82
    34.6600        68
    34.6800        78
    34.7000        86
    34.7200        76
    34.7400        86
    34.7600        80
    34.7800        68
    34.8000        90
    34.8200        88
    34.8400        88
    34.8600       108
    34.8800       140
    34.9000       156
    34.9200       166
    34.9400       124
    34.9600       134
    34.9800       124
    35.0000       160
    35.0200       140
    35.0400       140
    35.0600       114
    35.0800       114
    35.1000       116
    35.1200        96
    35.1400       100
    35.1600        78
    35.1800        94
    35.2000        90
    35.2200       104
    35.2400       104
    35.2600       114
    35.2800       106
    35.3000       106
    35.3200       144
    35.3400       130
    35.3600       158
    35.3800       140
    35.4000       124
    35.4200       146
    35.4400       152
    35.4600       130
    35.4800       116
    35.5000       120
    35.5200       132
    35.5400       124
    35.5600       122
    35.5800       108
    35.6000       108
    35.6200       130
    35.6400       134
    35.6600       108
    35.6800       116
    35.7000       106
    35.7200       110
    35.7400       122
    35.7600        96
    35.7800        90
    35.8000        86
    35.8200        76
    35.8400       102
    35.8600        92
    35.8800        92
    35.9000        94
    35.9200        96
    35.9400        86
    35.9600       102
    35.9800        82
    36.0000       110
    36.0200       104
    36.0400        88
    36.0600        88
    36.0800       100
    36.1000       102
    36.1200       104
    36.1400       104
    36.1600        96
    36.1800       106
    36.2000        80
    36.2200        90
    36.2400        76
    36.2600        74
    36.2800        66
    36.3000        82
    36.3200        90
    36.3400        74
    36.3600        96
    36.3800        94
    36.4000       114
    36.4200        94
    36.4400       114
    36.4600       126
    36.4800       116
    36.5000       110
    36.5200       138
    36.5400       118
    36.5600       130
    36.5800       134
    36.6000       158
    36.6200       180
    36.6400       166
    36.6600       172
    36.6800       174
    36.7000       170
    36.7200       184
    36.7400       198
    36.7600       172
    36.7800       202
    36.8000       188
    36.8200       186
    36.8400       206
    36.8600       214
    36.8800       214
    36.9000       206
    36.9200       228
    36.9400       208
    36.9600       220
    36.9800       194
    37.0000       176
    37.0200       230
    37.0400       182
    37.0600       172
    37.0800       188
    37.1000       154
    37.1200       150
    37.1400       154
    37.1600       112
    37.1800       116
    37.2000       110
    37.2200        98
    37.2400        68
    37.2600        96
    37.2800       106
    37.3000       108
    37.3200        78
    37.3400        72
    37.3600        86
    37.3800        64
    37.4000        50
    37.4200        76
    37.4400        66
    37.4600        78
    37.4800        70
    37.5000        76
    37.5200        66
    37.5400        64
    37.5600        68
    37.5800        78
    37.6000        80
    37.6200        70
    37.6400        78
    37.6600        74
    37.6800        56
    37.7000        78
    37.7200        74
    37.7400        66
    37.7600        72
    37.7800        52
    37.8000        66
    37.8200        56
    37.8400        70
    37.8600        76
    37.8800       100
    37.9000        68
    37.9200        64
    37.9400        78
    37.9600        74
    37.9800        58
    38.0000        76
    38.0200        80
    38.0400        80
    38.0600        78
    38.0800        84
    38.1000        82
    38.1200        86
    38.1400        78
    38.1600        76
    38.1800        80
    38.2000        90
    38.2200        78
    38.2400        64
    38.2600        70
    38.2800        76
    38.3000        72
    38.3200        68
    38.3400        76
    38.3600        72
    38.3800        60
    38.4000        88
    38.4200        54
    38.4400        78
    38.4600        90
    38.4800        64
    38.5000        48
    38.5200        82
    38.5400        68
    38.5600        44
    38.5800        68
    38.6000        60
    38.6200        62
    38.6400        76
    38.6600        76
    38.6800        84
    38.7000        64
    38.7200        64
    38.7400        64
    38.7600        60
    38.7800        60
    38.8000        66
    38.8200        60
    38.8400        58
    38.8600        70
    38.8800        66
    38.9000        70
    38.9200        52
    38.9400        78
    38.9600        76
    38.9800        58
    39.0000        70
    39.0200        68
    39.0400        68
    39.0600        60
    39.0800        64
    39.1000        50
    39.1200        54
    39.1400        62
    39.1600        44
    39.1800        74
    39.2000        64
    39.2200        66
    39.2400        66
    39.2600        82
    39.2800        60
    39.3000        62
    39.3200        64
    39.3400        58
    39.3600        72
    39.3800        68
    39.4000        60
    39.4200        76
    39.4400        64
    39.4600        78
    39.4800        66
    39.5000        64
    39.5200        68
    39.5400        86
    39.5600        54
    39.5800        70
    39.6000        72
    39.6200        56
    39.6400        70
    39.6600        56
    39.6800        72
    39.7000        54
    39.7200        60
    39.7400        58
    39.7600        64
    39.7800        58
    39.8000        60
    39.8200        56
    39.8400        50
    39.8600        62
    39.8800        62
    39.9000        66
    39.9200        54
    39.9400        48
    39.9600        56
    39.9800        54
    40.0000        62
    40.0200        56
    40.0400        52
    40.0600        58
    40.0800        58
    40.1000        64
    40.1200        52
    40.1400        56
    40.1600        66
    40.1800        58
    40.2000        52
    40.2200        56
    40.2400        60
    40.2600        68
    40.2800        72
    40.3000        58
    40.3200        48
    40.3400        52
    40.3600        66
    40.3800        58
    40.4000        56
    40.4200        64
    40.4400        52
    40.4600        58
    40.4800        42
    40.5000        66
    40.5200        54
    40.5400        64
    40.5600        62
    40.5800        78
    40.6000        84
    40.6200        62
    40.6400        58
    40.6600        72
    40.6800        80
    40.7000        76
    40.7200        84
    40.7400        66
    40.7600        62
    40.7800        64
    40.8000        66
    40.8200        46
    40.8400        62
    40.8600        70
    40.8800        60
    40.9000        70
    40.9200        60
    40.9400        48
    40.9600        64
    40.9800        70
    41.0000        56
    41.0200        76
    41.0400        64
    41.0600        66
    41.0800        70
    41.1000        64
    41.1200        72
    41.1400        82
    41.1600        82
    41.1800        88
    41.2000        80
    41.2200        72
    41.2400        76
    41.2600        58
    41.2800        74
    41.3000        72
    41.3200        64
    41.3400        76
    41.3600        72
    41.3800        76
    41.4000        68
    41.4200        80
    41.4400        68
    41.4600        64
    41.4800        56
    41.5000        52
    41.5200        50
    41.5400        58
    41.5600        60
    41.5800        58
    41.6000        50
    41.6200        42
    41.6400        64
    41.6600        60
    41.6800        56
    41.7000        50
    41.7200        66
    41.7400        58
    41.7600        50
    41.7800        56
    41.8000        48
    41.8200        50
    41.8400        70
    41.8600        76
    41.8800        56
    41.9000        60
    41.9200        70
    41.9400        76
    41.9600        94
    41.9800       112
    42.0000       102
    42.0200        76
    42.0400        82
    42.0600        68
    42.0800        88
    42.1000        72
    42.1200        98
    42.1400        70
    42.1600        70
    42.1800        86
    42.2000        70
    42.2200        66
    42.2400        78
    42.2600        56
    42.2800        72
    42.3000        68
    42.3200        64
    42.3400        50
    42.3600        62
    42.3800        86
    42.4000        68
    42.4200        72
    42.4400        76
    42.4600        70
    42.4800        72
    42.5000        60
    42.5200        70
    42.5400        70
    42.5600        94
    42.5800        68
    42.6000        82
    42.6200        74
    42.6400        92
    42.6600        72
    42.6800        90
    42.7000        84
    42.7200        72
    42.7400        84
    42.7600        84
    42.7800        74
    42.8000        60
    42.8200        78
    42.8400        78
    42.8600        66
    42.8800        56
    42.9000        68
    42.9200        58
    42.9400        76
    42.9600        64
    42.9800        84
    43.0000        86
    43.0200        90
    43.0400        96
    43.0600        86
    43.0800        80
    43.1000        74
    43.1200        92
    43.1400       112
    43.1600        94
    43.1800       108
    43.2000       118
    43.2200       122
    43.2400       102
    43.2600       104
    43.2800        94
    43.3000        96
    43.3200       106
    43.3400       106
    43.3600       104
    43.3800        76
    43.4000        96
    43.4200        76
    43.4400        70
    43.4600        76
    43.4800        70
    43.5000        54
    43.5200        78
    43.5400        68
    43.5600        62
    43.5800        64
    43.6000        66
    43.6200        66
    43.6400        68
    43.6600        64
    43.6800        56
    43.7000        64
    43.7200        76
    43.7400        52
    43.7600        58
    43.7800        64
    43.8000        66
    43.8200        84
    43.8400        76
    43.8600        78
    43.8800        88
    43.9000        86
    43.9200        84
    43.9400        74
    43.9600        94
    43.9800        90
    44.0000        78
    44.0200        64
    44.0400        84
    44.0600        74
    44.0800        78
    44.1000        76
    44.1200        74
    44.1400        70
    44.1600        70
    44.1800        68
    44.2000        60
    44.2200        68
    44.2400        56
    44.2600        58
    44.2800        60
    44.3000        58
    44.3200        70
    44.3400        44
    44.3600        54
    44.3800        60
    44.4000        60
    44.4200        64
    44.4400        70
    44.4600        60
    44.4800        72
    44.5000        72
    44.5200        60
    44.5400        52
    44.5600        68
    44.5800        80
    44.6000        66
    44.6200        76
    44.6400        70
    44.6600        78
    44.6800        72
    44.7000        78
    44.7200        82
    44.7400        60
    44.7600        96
    44.7800        92
    44.8000       108
    44.8200        94
    44.8400        96
    44.8600       122
    44.8800       128
    44.9000       112
    44.9200       132
    44.9400       112
    44.9600        90
    44.9800       102
    45.0000        96
    45.0200       108
    45.0400        86
    45.0600        72
    45.0800        92
    45.1000        68
    45.1200        76
    45.1400        76
    45.1600        72
    45.1800        60
    45.2000        70
    45.2200        62
    45.2400        48
    45.2600        46
    45.2800        50
    45.3000        54
    45.3200        52
    45.3400        58
    45.3600        54
    45.3800        56
    45.4000        44
    45.4200        56
    45.4400        56
    45.4600        58
    45.4800        44
    45.5000        56
    45.5200        66
    45.5400        54
    45.5600        64
    45.5800        60
    45.6000        34
    45.6200        42
    45.6400        66
    45.6600        62
    45.6800        54
    45.7000        60
    45.7200        60
    45.7400        72
    45.7600        74
    45.7800        64
    45.8000        66
    45.8200        88
    45.8400        64
    45.8600        66
    45.8800        76
    45.9000        62
    45.9200        68
    45.9400        60
    45.9600        58
    45.9800        72
    46.0000        70
    46.0200        60
    46.0400        80
    46.0600        78
    46.0800        90
    46.1000        80
    46.1200        86
    46.1400        90
    46.1600       104
    46.1800       102
    46.2000       112
    46.2200       124
    46.2400       124
    46.2600       120
    46.2800       142
    46.3000       128
    46.3200       116
    46.3400       126
    46.3600       110
    46.3800       116
    46.4000       108
    46.4200       110
    46.4400        86
    46.4600        86
    46.4800        88
    46.5000        88
    46.5200        68
    46.5400        74
    46.5600        86
    46.5800        80
    46.6000        84
    46.6200        64
    46.6400        88
    46.6600        86
    46.6800        94
    46.7000       100
    46.7200       114
    46.7400        98
    46.7600        96
    46.7800        90
    46.8000        98
    46.8200        96
    46.8400        92
    46.8600        96
    46.8800        80
    46.9000        74
    46.9200        82
    46.9400        62
    46.9600        88
    46.9800        76
    47.0000        86
    47.0200        78
    47.0400        86
    47.0600        56
    47.0800        52
    47.1000        82
    47.1200        80
    47.1400        80
    47.1600        66
    47.1800        72
    47.2000        70
    47.2200        68
    47.2400        72
    47.2600        62
    47.2800        50
    47.3000        72
    47.3200        68
    47.3400        54
    47.3600        60
    47.3800        62
    47.4000        68
    47.4200        46
    47.4400        54
    47.4600        58
    47.4800        72
    47.5000        62
    47.5200        56
    47.5400        62
    47.5600        54
    47.5800        54
    47.6000        54
    47.6200        50
    47.6400        50
    47.6600        64
    47.6800        50
    47.7000        66
    47.7200        66
    47.7400        60
    47.7600        62
    47.7800        54
    47.8000        78
    47.8200        52
    47.8400        58
    47.8600        50
    47.8800        60
    47.9000        60
    47.9200        52
    47.9400        44
    47.9600        48
    47.9800        48
    48.0000        50
    48.0200        52
    48.0400        46
    48.0600        50
    48.0800        56
    48.1000        56
    48.1200        50
    48.1400        68
    48.1600        42
    48.1800        42
    48.2000        46
    48.2200        44
    48.2400        58
    48.2600        50
    48.2800        62
    48.3000        52
    48.3200        48
    48.3400        68
    48.3600        56
    48.3800        52
    48.4000        68
    48.4200        60
    48.4400        46
    48.4600        54
    48.4800        48
    48.5000        44
    48.5200        54
    48.5400        46
    48.5600        48
    48.5800        50
    48.6000        38
    48.6200        44
    48.6400        70
    48.6600        44
    48.6800        54
    48.7000        56
    48.7200        56
    48.7400        44
    48.7600        62
    48.7800        70
    48.8000        72
    48.8200        64
    48.8400        58
    48.8600        50
    48.8800        70
    48.9000        62
    48.9200        78
    48.9400        84
    48.9600        66
    48.9800        60
    49.0000        58
    49.0200        74
    49.0400        64
    49.0600        62
    49.0800        64
    49.1000        72
    49.1200        82
    49.1400        62
    49.1600        68
    49.1800        66
    49.2000        54
    49.2200        58
    49.2400        50
    49.2600        56
    49.2800        50
    49.3000        56
    49.3200        44
    49.3400        52
    49.3600        46
    49.3800        52
    49.4000        46
    49.4200        42
    49.4400        42
    49.4600        50
    49.4800        52
    49.5000        60
    49.5200        58
    49.5400        60
    49.5600        62
    49.5800        56
    49.6000        64
    49.6200        58
    49.6400        52
    49.6600        54
    49.6800        70
    49.7000        66
    49.7200        62
    49.7400        66
    49.7600        62
    49.7800        76
    49.8000        68
    49.8200        86
    49.8400        66
    49.8600        94
    49.8800       100
    49.9000        70
    49.9200        88
    49.9400        76
    49.9600        80
    49.9800        74
    50.0000        80
    50.0200        72
    50.0400        78
    50.0600        76
    50.0800        74
    50.1000        74
    50.1200        56
    50.1400        58
    50.1600        76
    50.1800        80
    50.2000        58
    50.2200        64
    50.2400        58
    50.2600        54
    50.2800        68
    50.3000        54
    50.3200        64
    50.3400        58
    50.3600        66
    50.3800        48
    50.4000        58
    50.4200        58
    50.4400        52
    50.4600        46
    50.4800        52
    50.5000        68
    50.5200        50
    50.5400        54
    50.5600        32
    50.5800        68
    50.6000        56
    50.6200        42
    50.6400        50
    50.6600        74
    50.6800        44
    50.7000        60
    50.7200        40
    50.7400        48
    50.7600        42
    50.7800        64
    50.8000        56
    50.8200        68
    50.8400        60
    50.8600        62
    50.8800        76
    50.9000        72
    50.9200        66
    50.9400        72
    50.9600        78
    50.9800        82
    51.0000        62
    51.0200        80
    51.0400        68
    51.0600        92
    51.0800        80
    51.1000        76
    51.1200        74
    51.1400        86
    51.1600        68
    51.1800        68
    51.2000        82
    51.2200        74
    51.2400        76
    51.2600        90
    51.2800        82
    51.3000        82
    51.3200        82
    51.3400        90
    51.3600        92
    51.3800        92
    51.4000        96
    51.4200       104
    51.4400        94
    51.4600        88
    51.4800       120
    51.5000        94
    51.5200        94
    51.5400       114
    51.5600        96
    51.5800        98
    51.6000       110
    51.6200       100
    51.6400       106
    51.6600       104
    51.6800       130
    51.7000       114
    51.7200       122
    51.7400       114
    51.7600       122
    51.7800       104
    51.8000       118
    51.8200       104
    51.8400       110
    51.8600       110
    51.8800       110
    51.9000        96
    51.9200       110
    51.9400        86
    51.9600        84
    51.9800        76
    52.0000        82
    52.0200        92
    52.0400        90
    52.0600       100
    52.0800        86
    52.1000        86
    52.1200        96
    52.1400        94
    52.1600        78
    52.1800        76
    52.2000       104
    52.2200        76
    52.2400        86
    52.2600        86
    52.2800        68
    52.3000        86
    52.3200        74
    52.3400        74
    52.3600        92
    52.3800        82
    52.4000        86
    52.4200        76
    52.4400        70
    52.4600        78
    52.4800        96
    52.5000        72
    52.5200        74
    52.5400        90
    52.5600        78
    52.5800        78
    52.6000        66
    52.6200        76
    52.6400        72
    52.6600        78
    52.6800        78
    52.7000        70
    52.7200        76
    52.7400        64
    52.7600        58
    52.7800        90
    52.8000        80
    52.8200        80
    52.8400        74
    52.8600        86
    52.8800        68
    52.9000        74
    52.9200        88
    52.9400        58
    52.9600        84
    52.9800        88
    53.0000        80
    53.0200        82
    53.0400        68
    53.0600        90
    53.0800        84
    53.1000        86
    53.1200        90
    53.1400        94
    53.1600        92
    53.1800        72
    53.2000        70
    53.2200        68
    53.2400        66
    53.2600        90
    53.2800        76
    53.3000        60
    53.3200        66
    53.3400        66
    53.3600        66
    53.3800        64
    53.4000        58
    53.4200        70
    53.4400        64
    53.4600        64
    53.4800        62
    53.5000        62
    53.5200        70
    53.5400        56
    53.5600        74
    53.5800        54
    53.6000        66
    53.6200        70
    53.6400        66
    53.6600        66
    53.6800        88
    53.7000        64
    53.7200        66
    53.7400        60
    53.7600        70
    53.7800        62
    53.8000        68
    53.8200        80
    53.8400        64
    53.8600        58
    53.8800        66
    53.9000        76
    53.9200        62
    53.9400        76
    53.9600        84
    53.9800        88
    54.0000        92
    54.0200       104
    54.0400        92
    54.0600       102
    54.0800       104
    54.1000       106
    54.1200       104
    54.1400       108
    54.1600       102
    54.1800       120
    54.2000       108
    54.2200       104
    54.2400        98
    54.2600       100
    54.2800       118
    54.3000        90
    54.3200        88
    54.3400        88
    54.3600        70
    54.3800        88
    54.4000        68
    54.4200        72
    54.4400        58
    54.4600        66
    54.4800        68
    54.5000        64
    54.5200        60
    54.5400        66
    54.5600        56
    54.5800        62
    54.6000        60
    54.6200        50
    54.6400        50
    54.6600        52
    54.6800        54
    54.7000        50
    54.7200        34
    54.7400        52
    54.7600        50
    54.7800        56
    54.8000        70
    54.8200        50
    54.8400        56
    54.8600        48
    54.8800        50
    54.9000        60
    54.9200        42
    54.9400        52
    54.9600        60
    54.9800        64
    55.0000        54
    55.0200        70
    55.0400        68
    55.0600        80
    55.0800        72
    55.1000        78
    55.1200        76
    55.1400        78
    55.1600        72
    55.1800        64
    55.2000        80
    55.2200        66
    55.2400        62
    55.2600        76
    55.2800        54
    55.3000        52
    55.3200        58
    55.3400        74
    55.3600        68
    55.3800        52
    55.4000        70
    55.4200        62
    55.4400        64
    55.4600        64
    55.4800        60
    55.5000        52
    55.5200        60
    55.5400        74
    55.5600        76
    55.5800        50
    55.6000        76
    55.6200        64
    55.6400        58
    55.6600        76
    55.6800        82
    55.7000        82
    55.7200        64
    55.7400        88
    55.7600        74
    55.7800        80
    55.8000        78
    55.8200        66
    55.8400        66
    55.8600        62
    55.8800        70
    55.9000        70
    55.9200        60
    55.9400        64
    55.9600        56
    55.9800        60
    56.0000        68
    56.0200        82
    56.0400        58
    56.0600        60
    56.0800        62
    56.1000        80
    56.1200        58
    56.1400        68
    56.1600        64
    56.1800        96
    56.2000        64
    56.2200        54
    56.2400        52
    56.2600        62
    56.2800        52
    56.3000        68
    56.3200        72
    56.3400        72
    56.3600        70
    56.3800        82
    56.4000        64
    56.4200        78
    56.4400        60
    56.4600        66
    56.4800        64
    56.5000        78
    56.5200        54
    56.5400        60
    56.5600        64
    56.5800        58
    56.6000        62
    56.6200        80
    56.6400        80
    56.6600        64
    56.6800        58
    56.7000        68
    56.7200        68
    56.7400        62
    56.7600        74
    56.7800        62
    56.8000        60
    56.8200        68
    56.8400        76
    56.8600        78
    56.8800        78
    56.9000        90
    56.9200        88
    56.9400        76
    56.9600        66
    56.9800        74
    57.0000        82
    57.0200        60
    57.0400        62
    57.0600        68
    57.0800        70
    57.1000        70
    57.1200        60
    57.1400        48
    57.1600        60
    57.1800        54
    57.2000        56
    57.2200        62
    57.2400        56
    57.2600        56
    57.2800        56
    57.3000        50
    57.3200        46
    57.3400        36
    57.3600        48
    57.3800        40
    57.4000        54
    57.4200        50
    57.4400        46
    57.4600        44
    57.4800        44
    57.5000        50
    57.5200        58
    57.5400        56
    57.5600        66
    57.5800        58
    57.6000        66
    57.6200        66
    57.6400        66
    57.6600        54
    57.6800        74
    57.7000        62
    57.7200        78
    57.7400        72
    57.7600        82
    57.7800        88
    57.8000        84
    57.8200        80
    57.8400        92
    57.8600        72
    57.8800       102
    57.9000        68
    57.9200        84
    57.9400        88
    57.9600        88
    57.9800        88
    58.0000        68
    58.0200        80
    58.0400        70
    58.0600        96
    58.0800        90
    58.1000        60
    58.1200        84
    58.1400       102
    58.1600        68
    58.1800        74
    58.2000        70
    58.2200        82
    58.2400        68
    58.2600        70
    58.2800        58
    58.3000        78
    58.3200        52
    58.3400        66
    58.3600        64
    58.3800        66
    58.4000        60
    58.4200        66
    58.4400        62
    58.4600        60
    58.4800        52
    58.5000        40
    58.5200        62
    58.5400        66
    58.5600        46
    58.5800        58
    58.6000        56
    58.6200        42
    58.6400        54
    58.6600        46
    58.6800        54
    58.7000        46
    58.7200        56
    58.7400        52
    58.7600        58
    58.7800        48
    58.8000        50
    58.8200        50
    58.8400        62
    58.8600        74
    58.8800        56
    58.9000        72
    58.9200        48
    58.9400        66
    58.9600        60
    58.9800        56
    59.0000        56
    59.0200        56
    59.0400        58
    59.0600        60
    59.0800        48
    59.1000        78
    59.1200        78
    59.1400        64
    59.1600        76
    59.1800        54
    59.2000        46
    59.2200        78
    59.2400        68
    59.2600        60
    59.2800        70
    59.3000        72
    59.3200        60
    59.3400        58
    59.3600        60
    59.3800        48
    59.4000        58
    59.4200        62
    59.4400        64
    59.4600        62
    59.4800        62
    59.5000        48
    59.5200        46
    59.5400        60
    59.5600        58
    59.5800        56
    59.6000        48
    59.6200        46
    59.6400        52
    59.6600        46
    59.6800        52
    59.7000        56
    59.7200        68
    59.7400        50
    59.7600        56
    59.7800        48
    59.8000        50
    59.8200        50
    59.8400        48
    59.8600        44
    59.8800        54
    59.9000        48
    59.9200        56
    59.9400        60
    59.9600        50
    59.9800        62
    60.0000        68
    60.0200        68
    60.0400        66
    60.0600        62
    60.0800        58
    60.1000        72
    60.1200        60
    60.1400        60
    60.1600        42
    60.1800        62
    60.2000        54
    60.2200        54
    60.2400        62
    60.2600        64
    60.2800        68
    60.3000        56
    60.3200        62
    60.3400        82
    60.3600        50
    60.3800        50
    60.4000        54
    60.4200        58
    60.4400        52
    60.4600        72
    60.4800        58
    60.5000        52
    60.5200        40
    60.5400        50
    60.5600        44
    60.5800        48
    60.6000        50
    60.6200        60
    60.6400        62
    60.6600        52
    60.6800        64
    60.7000        54
    60.7200        66
    60.7400        62
    60.7600        74
    60.7800        60
    60.8000        66
    60.8200        80
    60.8400        62
    60.8600        74
    60.8800        76
    60.9000        70
    60.9200        44
    60.9400        68
    60.9600        66
    60.9800        64
    61.0000        66
    61.0200        80
    61.0400        80
    61.0600        78
    61.0800        56
    61.1000        60
    61.1200        66
    61.1400        68
    61.1600        64
    61.1800        54
    61.2000        64
    61.2200        56
    61.2400        58
    61.2600        52
    61.2800        46
    61.3000        54
    61.3200        58
    61.3400        46
    61.3600        36
    61.3800        42
    61.4000        50
    61.4200        58
    61.4400        50
    61.4600        34
    61.4800        68
    61.5000        54
    61.5200        38
    61.5400        54
    61.5600        56
    61.5800        52
    61.6000        52
    61.6200        50
    61.6400        66
    61.6600        60
    61.6800        54
    61.7000        46
    61.7200        64
    61.7400        46
    61.7600        40
    61.7800        54
    61.8000        54
    61.8200        52
    61.8400        56
    61.8600        46
    61.8800        64
    61.9000        50
    61.9200        56
    61.9400        50
    61.9600        56
    61.9800        58
    62.0000        64
    62.0200        74
    62.0400        76
    62.0600        78
    62.0800        64
    62.1000        64
    62.1200        56
    62.1400        66
    62.1600        64
    62.1800        60
    62.2000        76
    62.2200        80
    62.2400        66
    62.2600        84
    62.2800        92
    62.3000        68
    62.3200        70
    62.3400        72
    62.3600        78
    62.3800        78
    62.4000        72
    62.4200        70
    62.4400        74
    62.4600        72
    62.4800        78
    62.5000        72
    62.5200        80
    62.5400        74
    62.5600        66
    62.5800        92
    62.6000        82
    62.6200        88
    62.6400        76
    62.6600        70
    62.6800        80
    62.7000        80
    62.7200        94
    62.7400        90
    62.7600        92
    62.7800        82
    62.8000        86
    62.8200       102
    62.8400        84
    62.8600        82
    62.8800        76
    62.9000        76
    62.9200        62
    62.9400        62
    62.9600        74
    62.9800        64
    63.0000        78
    63.0200        64
    63.0400        66
    63.0600        70
    63.0800        68
    63.1000        66
    63.1200        82
    63.1400        62
    63.1600        58
    63.1800        60
    63.2000        70
    63.2200        64
    63.2400        52
    63.2600        62
    63.2800        68
    63.3000        46
    63.3200        64
    63.3400        54
    63.3600        56
    63.3800        58
    63.4000        46
    63.4200        72
    63.4400        64
    63.4600        52
    63.4800        44
    63.5000        68
    63.5200        50
    63.5400        72
    63.5600        56
    63.5800        56
    63.6000        58
    63.6200        58
    63.6400        60
    63.6600        52
    63.6800        64
    63.7000        68
    63.7200        70
    63.7400        68
    63.7600        60
    63.7800        58
    63.8000        56
    63.8200        72
    63.8400        76
    63.8600        64
    63.8800        76
    63.9000        76
    63.9200        84
    63.9400        68
    63.9600        72
    63.9800        84
    64.0000        92
    64.0200        86
    64.0400        78
    64.0600        84
    64.0800        80
    64.1000        92
    64.1200        96
    64.1400        94
    64.1600        92
    64.1800        74
    64.2000        90
    64.2200        92
    64.2400        90
    64.2600        82
    64.2800        88
    64.3000        64
    64.3200        74
    64.3400        72
    64.3600        64
    64.3800        82
    64.4000        82
    64.4200        62
    64.4400        78
    64.4600        66
    64.4800        72
    64.5000        60
    64.5200        68
    64.5400        56
    64.5600        74
    64.5800        62
    64.6000        58
    64.6200        70
    64.6400        72
    64.6600        70
    64.6800        58
    64.7000        68
    64.7200        70
    64.7400        70
    64.7600        76
    64.7800        60
    64.8000        78
    64.8200        72
    64.8400        78
    64.8600        70
    64.8800        82
    64.9000        98
    64.9200        84
    64.9400        98
    64.9600        94
    64.9800       100
    65.0000        88
