/////////////////////////////////////////////////////////////////////////////////
/// Profile Data Ascii Dump (XRD)                                             ///
/////////////////////////////////////////////////////////////////////////////////

  Group     : Swayze
  Data      : GDS3
  File Name : GDS3.RAW

# Profile Datafile
          comment             = Heulandite 
          date & time         = 08-03-25 07:24:04 

# Measurement Condition
    X-ray tube
          target              = Cu 
          voltage             = 40.0 (kV)
          current             = 30.0 (mA)
    Slits
          divergence slit     = 2.00000 (deg) 
          scatter slit        = 2.00000 (deg) 
          receiving slit      = 0.15000 (mm)  
    Scanning
          drive axis          = Theta-2Theta 
          scan range          =    4.000 -   65.000 
          scan mode           = Continuous Scan 
          scan speed          =   2.0000 (deg/min) 
          sampling pitch      =   0.0200 (deg) 
          preset time         =   0.60 (sec) 

# Data      [ Total No. = 3051 ]
  <2Theta>   <   I   >
     4.0000       186
     4.0200       172
     4.0400       214
     4.0600       184
     4.0800       182
     4.1000       182
     4.1200       160
     4.1400       186
     4.1600       188
     4.1800       172
     4.2000       158
     4.2200       180
     4.2400       186
     4.2600       160
     4.2800       176
     4.3000       194
     4.3200       164
     4.3400       172
     4.3600       166
     4.3800       176
     4.4000       170
     4.4200       180
     4.4400       162
     4.4600       206
     4.4800       180
     4.5000       148
     4.5200       168
     4.5400       198
     4.5600       182
     4.5800       164
     4.6000       142
     4.6200       156
     4.6400       174
     4.6600       166
     4.6800       156
     4.7000       152
     4.7200       168
     4.7400       156
     4.7600       166
     4.7800       156
     4.8000       172
     4.8200       170
     4.8400       166
     4.8600       164
     4.8800       148
     4.9000       144
     4.9200       184
     4.9400       166
     4.9600       164
     4.9800       166
     5.0000       148
     5.0200       194
     5.0400       158
     5.0600       178
     5.0800       148
     5.1000       178
     5.1200       160
     5.1400       152
     5.1600       184
     5.1800       166
     5.2000       162
     5.2200       152
     5.2400       160
     5.2600       164
     5.2800       148
     5.3000       130
     5.3200       156
     5.3400       150
     5.3600       134
     5.3800       154
     5.4000       146
     5.4200       150
     5.4400       144
     5.4600       144
     5.4800       160
     5.5000       150
     5.5200       146
     5.5400       158
     5.5600       162
     5.5800       156
     5.6000       166
     5.6200       156
     5.6400       160
     5.6600       182
     5.6800       158
     5.7000       152
     5.7200       166
     5.7400       160
     5.7600       130
     5.7800       176
     5.8000       154
     5.8200       132
     5.8400       168
     5.8600       144
     5.8800       140
     5.9000       152
     5.9200       144
     5.9400       178
     5.9600       160
     5.9800       164
     6.0000       136
     6.0200       130
     6.0400       124
     6.0600       150
     6.0800       178
     6.1000       158
     6.1200       102
     6.1400       158
     6.1600       158
     6.1800       146
     6.2000       140
     6.2200       148
     6.2400       148
     6.2600       138
     6.2800       146
     6.3000       148
     6.3200       156
     6.3400       166
     6.3600       174
     6.3800       148
     6.4000       114
     6.4200       132
     6.4400       138
     6.4600       128
     6.4800       128
     6.5000       126
     6.5200       138
     6.5400       146
     6.5600       120
     6.5800       122
     6.6000       132
     6.6200       124
     6.6400       118
     6.6600       134
     6.6800       114
     6.7000       140
     6.7200       116
     6.7400       134
     6.7600       120
     6.7800       126
     6.8000       126
     6.8200       118
     6.8400       128
     6.8600       114
     6.8800       124
     6.9000       136
     6.9200       112
     6.9400       118
     6.9600       142
     6.9800       128
     7.0000       112
     7.0200       130
     7.0400       114
     7.0600       130
     7.0800       140
     7.1000       118
     7.1200       102
     7.1400       118
     7.1600       124
     7.1800       128
     7.2000       112
     7.2200       102
     7.2400       110
     7.2600       112
     7.2800       128
     7.3000       106
     7.3200       124
     7.3400       118
     7.3600       154
     7.3800       134
     7.4000       122
     7.4200       134
     7.4400       120
     7.4600        90
     7.4800       122
     7.5000       120
     7.5200        96
     7.5400       128
     7.5600       120
     7.5800       112
     7.6000        92
     7.6200       102
     7.6400        98
     7.6600       118
     7.6800       106
     7.7000       120
     7.7200       114
     7.7400       110
     7.7600       114
     7.7800       102
     7.8000       114
     7.8200       122
     7.8400       104
     7.8600       112
     7.8800       116
     7.9000       106
     7.9200       112
     7.9400       122
     7.9600       124
     7.9800       112
     8.0000       112
     8.0200       100
     8.0400       136
     8.0600       126
     8.0800       114
     8.1000       116
     8.1200       116
     8.1400       120
     8.1600       116
     8.1800       106
     8.2000        98
     8.2200       112
     8.2400       128
     8.2600       100
     8.2800       118
     8.3000       140
     8.3200       134
     8.3400       128
     8.3600       130
     8.3800       126
     8.4000       138
     8.4200       132
     8.4400       112
     8.4600       104
     8.4800       126
     8.5000       122
     8.5200       112
     8.5400       122
     8.5600       138
     8.5800       118
     8.6000        96
     8.6200       118
     8.6400       128
     8.6600       130
     8.6800       126
     8.7000       114
     8.7200       130
     8.7400       112
     8.7600       140
     8.7800       150
     8.8000       148
     8.8200       118
     8.8400       132
     8.8600       142
     8.8800       150
     8.9000       134
     8.9200       132
     8.9400       114
     8.9600       126
     8.9800       156
     9.0000       128
     9.0200       112
     9.0400       140
     9.0600       138
     9.0800       132
     9.1000       132
     9.1200       144
     9.1400       134
     9.1600       126
     9.1800       162
     9.2000       180
     9.2200       170
     9.2400       192
     9.2600       192
     9.2800       176
     9.3000       190
     9.3200       198
     9.3400       248
     9.3600       264
     9.3800       322
     9.4000       342
     9.4200       352
     9.4400       408
     9.4600       488
     9.4800       508
     9.5000       516
     9.5200       476
     9.5400       602
     9.5600       588
     9.5800       718
     9.6000       824
     9.6200      1058
     9.6400      1324
     9.6600      1884
     9.6800      2718
     9.7000      4048
     9.7200      5548
     9.7400      6790
     9.7600      7864
     9.7800      8196
     9.8000      8170
     9.8200      7212
     9.8400      5678
     9.8600      3976
     9.8800      2534
     9.9000      1452
     9.9200       820
     9.9400       482
     9.9600       356
     9.9800       282
    10.0000       280
    10.0200       260
    10.0400       238
    10.0600       194
    10.0800       172
    10.1000       160
    10.1200       154
    10.1400       156
    10.1600       108
    10.1800       110
    10.2000       136
    10.2200        96
    10.2400        94
    10.2600       118
    10.2800       122
    10.3000       106
    10.3200       108
    10.3400       126
    10.3600        98
    10.3800       110
    10.4000       112
    10.4200       102
    10.4400       108
    10.4600       112
    10.4800       108
    10.5000       104
    10.5200        88
    10.5400       100
    10.5600       118
    10.5800        98
    10.6000       110
    10.6200       112
    10.6400       128
    10.6600        94
    10.6800       114
    10.7000       108
    10.7200        84
    10.7400        80
    10.7600       118
    10.7800       110
    10.8000       126
    10.8200       102
    10.8400       104
    10.8600       120
    10.8800       124
    10.9000       116
    10.9200       142
    10.9400       114
    10.9600       130
    10.9800       134
    11.0000       152
    11.0200       134
    11.0400       120
    11.0600       136
    11.0800       130
    11.1000       110
    11.1200        98
    11.1400       112
    11.1600        92
    11.1800        88
    11.2000        94
    11.2200        90
    11.2400        82
    11.2600        92
    11.2800        88
    11.3000       104
    11.3200        94
    11.3400        98
    11.3600        90
    11.3800        88
    11.4000        96
    11.4200        74
    11.4400        78
    11.4600        78
    11.4800        94
    11.5000        96
    11.5200        70
    11.5400        94
    11.5600        90
    11.5800        94
    11.6000        64
    11.6200        86
    11.6400        76
    11.6600        90
    11.6800        80
    11.7000        74
    11.7200        78
    11.7400        90
    11.7600        66
    11.7800        78
    11.8000        84
    11.8200        60
    11.8400        82
    11.8600        84
    11.8800        70
    11.9000        80
    11.9200        74
    11.9400        76
    11.9600        94
    11.9800        84
    12.0000        78
    12.0200        78
    12.0400        76
    12.0600        92
    12.0800        82
    12.1000        90
    12.1200        88
    12.1400        82
    12.1600        92
    12.1800        86
    12.2000        86
    12.2200        92
    12.2400        82
    12.2600        72
    12.2800        94
    12.3000        96
    12.3200        82
    12.3400        78
    12.3600        74
    12.3800        68
    12.4000        78
    12.4200        80
    12.4400        84
    12.4600        76
    12.4800        86
    12.5000        86
    12.5200        78
    12.5400        80
    12.5600        76
    12.5800        70
    12.6000        82
    12.6200        94
    12.6400        98
    12.6600        94
    12.6800        56
    12.7000        88
    12.7200        80
    12.7400       106
    12.7600        82
    12.7800       102
    12.8000        98
    12.8200       104
    12.8400       114
    12.8600       110
    12.8800       110
    12.9000        98
    12.9200        94
    12.9400       108
    12.9600       100
    12.9800        88
    13.0000        86
    13.0200        90
    13.0400        80
    13.0600        74
    13.0800        94
    13.1000        94
    13.1200       100
    13.1400        98
    13.1600       106
    13.1800        92
    13.2000       104
    13.2200       126
    13.2400       102
    13.2600        92
    13.2800        86
    13.3000        64
    13.3200        84
    13.3400        80
    13.3600        84
    13.3800        72
    13.4000        80
    13.4200        78
    13.4400        76
    13.4600        70
    13.4800        68
    13.5000        62
    13.5200        74
    13.5400        82
    13.5600        72
    13.5800        70
    13.6000        80
    13.6200        80
    13.6400        84
    13.6600        90
    13.6800        56
    13.7000        72
    13.7200        80
    13.7400        80
    13.7600        54
    13.7800        78
    13.8000        80
    13.8200        74
    13.8400        66
    13.8600        68
    13.8800        52
    13.9000        78
    13.9200        66
    13.9400        78
    13.9600        80
    13.9800        72
    14.0000        84
    14.0200        60
    14.0400        72
    14.0600        58
    14.0800        78
    14.1000        58
    14.1200        84
    14.1400        64
    14.1600        70
    14.1800        60
    14.2000        82
    14.2200        68
    14.2400        66
    14.2600        62
    14.2800        70
    14.3000        72
    14.3200        70
    14.3400        74
    14.3600        70
    14.3800        68
    14.4000        62
    14.4200        66
    14.4400        74
    14.4600        70
    14.4800        92
    14.5000        66
    14.5200        64
    14.5400        66
    14.5600        66
    14.5800        60
    14.6000        84
    14.6200        58
    14.6400        86
    14.6600        74
    14.6800        90
    14.7000        60
    14.7200        90
    14.7400        80
    14.7600        72
    14.7800        70
    14.8000        86
    14.8200        86
    14.8400        72
    14.8600        84
    14.8800        70
    14.9000        72
    14.9200        70
    14.9400        74
    14.9600        68
    14.9800        72
    15.0000        70
    15.0200        74
    15.0400        66
    15.0600        74
    15.0800        68
    15.1000        60
    15.1200        66
    15.1400        56
    15.1600        54
    15.1800        58
    15.2000        82
    15.2200        60
    15.2400        60
    15.2600        90
    15.2800        86
    15.3000        66
    15.3200        68
    15.3400        60
    15.3600        78
    15.3800        70
    15.4000        70
    15.4200        70
    15.4400        78
    15.4600        56
    15.4800        60
    15.5000        86
    15.5200        74
    15.5400        68
    15.5600        74
    15.5800        74
    15.6000        68
    15.6200        84
    15.6400        88
    15.6600       112
    15.6800       100
    15.7000       130
    15.7200       116
    15.7400       124
    15.7600       120
    15.7800       120
    15.8000       110
    15.8200       104
    15.8400        90
    15.8600        82
    15.8800        88
    15.9000        72
    15.9200        60
    15.9400        62
    15.9600        62
    15.9800        62
    16.0000        60
    16.0200        54
    16.0400        66
    16.0600        50
    16.0800        62
    16.1000        72
    16.1200        76
    16.1400        72
    16.1600        72
    16.1800        64
    16.2000        62
    16.2200        76
    16.2400        76
    16.2600        82
    16.2800        72
    16.3000        80
    16.3200        86
    16.3400        82
    16.3600        68
    16.3800        86
    16.4000        86
    16.4200        80
    16.4400        78
    16.4600        96
    16.4800        90
    16.5000        96
    16.5200        82
    16.5400       112
    16.5600        98
    16.5800        72
    16.6000       102
    16.6200        80
    16.6400        76
    16.6600        90
    16.6800       112
    16.7000       134
    16.7200       108
    16.7400       138
    16.7600       152
    16.7800       146
    16.8000       116
    16.8200        88
    16.8400       110
    16.8600        82
    16.8800        80
    16.9000        64
    16.9200        60
    16.9400        74
    16.9600        70
    16.9800        76
    17.0000        66
    17.0200        70
    17.0400        88
    17.0600        78
    17.0800       112
    17.1000       120
    17.1200       116
    17.1400       112
    17.1600       146
    17.1800       162
    17.2000       142
    17.2200       142
    17.2400       128
    17.2600       136
    17.2800       120
    17.3000        98
    17.3200       110
    17.3400       108
    17.3600       120
    17.3800       116
    17.4000        94
    17.4200       110
    17.4400        88
    17.4600        66
    17.4800        56
    17.5000        60
    17.5200        54
    17.5400        78
    17.5600        56
    17.5800        62
    17.6000        56
    17.6200        60
    17.6400        54
    17.6600        56
    17.6800        60
    17.7000        58
    17.7200        56
    17.7400        62
    17.7600        70
    17.7800        76
    17.8000        70
    17.8200        50
    17.8400        66
    17.8600        64
    17.8800        66
    17.9000        40
    17.9200        66
    17.9400        64
    17.9600        48
    17.9800        60
    18.0000        52
    18.0200        44
    18.0400        50
    18.0600        50
    18.0800        56
    18.1000        58
    18.1200        46
    18.1400        60
    18.1600        56
    18.1800        52
    18.2000        64
    18.2200        60
    18.2400        54
    18.2600        56
    18.2800        66
    18.3000        62
    18.3200        64
    18.3400        64
    18.3600        58
    18.3800        54
    18.4000        66
    18.4200        64
    18.4400        56
    18.4600        54
    18.4800        80
    18.5000        70
    18.5200        58
    18.5400        64
    18.5600        72
    18.5800        80
    18.6000        78
    18.6200        58
    18.6400        76
    18.6600        82
    18.6800        86
    18.7000        86
    18.7200        90
    18.7400       100
    18.7600        98
    18.7800       118
    18.8000       144
    18.8200       164
    18.8400       204
    18.8600       270
    18.8800       272
    18.9000       288
    18.9200       286
    18.9400       276
    18.9600       280
    18.9800       296
    19.0000       284
    19.0200       268
    19.0400       218
    19.0600       180
    19.0800       126
    19.1000       104
    19.1200       100
    19.1400        86
    19.1600        82
    19.1800        70
    19.2000        70
    19.2200        62
    19.2400        56
    19.2600        58
    19.2800        76
    19.3000        54
    19.3200        60
    19.3400        58
    19.3600        56
    19.3800        74
    19.4000        78
    19.4200        64
    19.4400        66
    19.4600        60
    19.4800        74
    19.5000        62
    19.5200        72
    19.5400        88
    19.5600        92
    19.5800       108
    19.6000       112
    19.6200       134
    19.6400       146
    19.6600       156
    19.6800       188
    19.7000       210
    19.7200       224
    19.7400       230
    19.7600       192
    19.7800       190
    19.8000       172
    19.8200       152
    19.8400       136
    19.8600        92
    19.8800        82
    19.9000        78
    19.9200        76
    19.9400        68
    19.9600        64
    19.9800        68
    20.0000        68
    20.0200        66
    20.0400        52
    20.0600        78
    20.0800        70
    20.1000        74
    20.1200        82
    20.1400        84
    20.1600        86
    20.1800        64
    20.2000        82
    20.2200        96
    20.2400        76
    20.2600        86
    20.2800        68
    20.3000        86
    20.3200        72
    20.3400        60
    20.3600        62
    20.3800        44
    20.4000        62
    20.4200        76
    20.4400        58
    20.4600        46
    20.4800        48
    20.5000        62
    20.5200        46
    20.5400        66
    20.5600        58
    20.5800        52
    20.6000        58
    20.6200        54
    20.6400        48
    20.6600        62
    20.6800        64
    20.7000        72
    20.7200        66
    20.7400        62
    20.7600        42
    20.7800        44
    20.8000        48
    20.8200        52
    20.8400        64
    20.8600        58
    20.8800        46
    20.9000        46
    20.9200        42
    20.9400        56
    20.9600        62
    20.9800        56
    21.0000        60
    21.0200        56
    21.0400        58
    21.0600        44
    21.0800        56
    21.1000        48
    21.1200        64
    21.1400        58
    21.1600        54
    21.1800        48
    21.2000        60
    21.2200        60
    21.2400        58
    21.2600        44
    21.2800        50
    21.3000        50
    21.3200        54
    21.3400        52
    21.3600        64
    21.3800        56
    21.4000        56
    21.4200        48
    21.4400        62
    21.4600        62
    21.4800        58
    21.5000        50
    21.5200        54
    21.5400        56
    21.5600        56
    21.5800        58
    21.6000        58
    21.6200        58
    21.6400        62
    21.6600        52
    21.6800        48
    21.7000        62
    21.7200        62
    21.7400        56
    21.7600        64
    21.7800        62
    21.8000        58
    21.8200        70
    21.8400        82
    21.8600        72
    21.8800        64
    21.9000        82
    21.9200        80
    21.9400        94
    21.9600       104
    21.9800       118
    22.0000       132
    22.0200       120
    22.0400       152
    22.0600       144
    22.0800       194
    22.1000       232
    22.1200       244
    22.1400       356
    22.1600       430
    22.1800       494
    22.2000       512
    22.2200       534
    22.2400       546
    22.2600       506
    22.2800       498
    22.3000       396
    22.3200       388
    22.3400       354
    22.3600       328
    22.3800       282
    22.4000       292
    22.4200       248
    22.4400       222
    22.4600       226
    22.4800       228
    22.5000       214
    22.5200       292
    22.5400       372
    22.5600       426
    22.5800       504
    22.6000       526
    22.6200       576
    22.6400       590
    22.6600       536
    22.6800       488
    22.7000       476
    22.7200       436
    22.7400       388
    22.7600       336
    22.7800       312
    22.8000       234
    22.8200       220
    22.8400       158
    22.8600       138
    22.8800       116
    22.9000       104
    22.9200        76
    22.9400        84
    22.9600        92
    22.9800        96
    23.0000        92
    23.0200        86
    23.0400       102
    23.0600        84
    23.0800        94
    23.1000        88
    23.1200        60
    23.1400        72
    23.1600        66
    23.1800        70
    23.2000        58
    23.2200        58
    23.2400        62
    23.2600        48
    23.2800        54
    23.3000        54
    23.3200        60
    23.3400        62
    23.3600        62
    23.3800        62
    23.4000        54
    23.4200        56
    23.4400        54
    23.4600        68
    23.4800        64
    23.5000        72
    23.5200        72
    23.5400        88
    23.5600       114
    23.5800        90
    23.6000       106
    23.6200       124
    23.6400       132
    23.6600       142
    23.6800       158
    23.7000       142
    23.7200       156
    23.7400       116
    23.7600       116
    23.7800        92
    23.8000       102
    23.8200       108
    23.8400       124
    23.8600       112
    23.8800       102
    23.9000        92
    23.9200       100
    23.9400        88
    23.9600        84
    23.9800        52
    24.0000        66
    24.0200        50
    24.0400        50
    24.0600        60
    24.0800        64
    24.1000        56
    24.1200        44
    24.1400        54
    24.1600        64
    24.1800        46
    24.2000        58
    24.2200        50
    24.2400        86
    24.2600        56
    24.2800        60
    24.3000        46
    24.3200        48
    24.3400        46
    24.3600        44
    24.3800        58
    24.4000        54
    24.4200        56
    24.4400        54
    24.4600        72
    24.4800        74
    24.5000        50
    24.5200        56
    24.5400        48
    24.5600        56
    24.5800        48
    24.6000        60
    24.6200        42
    24.6400        58
    24.6600        62
    24.6800        84
    24.7000        94
    24.7200        90
    24.7400        86
    24.7600        92
    24.7800       104
    24.8000        98
    24.8200        90
    24.8400       100
    24.8600        94
    24.8800       118
    24.9000        78
    24.9200        92
    24.9400        76
    24.9600        84
    24.9800        88
    25.0000        66
    25.0200        72
    25.0400        68
    25.0600        70
    25.0800        66
    25.1000        62
    25.1200        70
    25.1400        76
    25.1600        80
    25.1800        68
    25.2000        82
    25.2200        88
    25.2400        92
    25.2600        80
    25.2800       118
    25.3000       104
    25.3200       130
    25.3400       104
    25.3600       108
    25.3800       134
    25.4000       130
    25.4200       176
    25.4400       198
    25.4600       192
    25.4800       190
    25.5000       148
    25.5200       142
    25.5400       152
    25.5600       112
    25.5800       116
    25.6000        96
    25.6200        90
    25.6400       104
    25.6600       100
    25.6800       104
    25.7000       106
    25.7200       122
    25.7400       124
    25.7600       138
    25.7800       142
    25.8000       154
    25.8200       172
    25.8400       192
    25.8600       172
    25.8800       168
    25.9000       174
    25.9200       146
    25.9400       126
    25.9600       128
    25.9800       130
    26.0000       140
    26.0200       134
    26.0400       142
    26.0600       136
    26.0800       182
    26.1000       166
    26.1200       192
    26.1400       144
    26.1600       146
    26.1800       114
    26.2000       104
    26.2200        78
    26.2400        60
    26.2600        60
    26.2800        68
    26.3000        42
    26.3200        56
    26.3400        68
    26.3600        48
    26.3800        44
    26.4000        50
    26.4200        52
    26.4400        48
    26.4600        56
    26.4800        68
    26.5000        62
    26.5200        60
    26.5400        74
    26.5600        50
    26.5800        76
    26.6000        86
    26.6200        74
    26.6400        82
    26.6600        84
    26.6800        84
    26.7000        76
    26.7200        82
    26.7400        96
    26.7600        54
    26.7800        60
    26.8000        66
    26.8200        68
    26.8400        54
    26.8600        62
    26.8800        58
    26.9000        60
    26.9200        56
    26.9400        46
    26.9600        52
    26.9800        56
    27.0000        42
    27.0200        50
    27.0400        50
    27.0600        62
    27.0800        64
    27.1000        50
    27.1200        50
    27.1400        40
    27.1600        44
    27.1800        36
    27.2000        48
    27.2200        42
    27.2400        54
    27.2600        60
    27.2800        56
    27.3000        46
    27.3200        42
    27.3400        44
    27.3600        66
    27.3800        48
    27.4000        60
    27.4200        50
    27.4400        42
    27.4600        48
    27.4800        52
    27.5000        50
    27.5200        60
    27.5400        56
    27.5600        60
    27.5800        68
    27.6000        62
    27.6200        58
    27.6400        62
    27.6600        66
    27.6800        82
    27.7000        64
    27.7200        72
    27.7400        64
    27.7600        74
    27.7800        96
    27.8000       104
    27.8200       126
    27.8400       106
    27.8600       152
    27.8800       182
    27.9000       190
    27.9200       174
    27.9400       162
    27.9600       164
    27.9800       152
    28.0000       138
    28.0200       122
    28.0400        96
    28.0600        86
    28.0800        80
    28.1000        90
    28.1200        70
    28.1400        66
    28.1600        84
    28.1800        76
    28.2000        74
    28.2200        92
    28.2400       100
    28.2600       116
    28.2800       146
    28.3000       154
    28.3200       148
    28.3400       174
    28.3600       176
    28.3800       204
    28.4000       252
    28.4200       248
    28.4400       236
    28.4600       218
    28.4800       238
    28.5000       214
    28.5200       200
    28.5400       188
    28.5600       130
    28.5800       134
    28.6000        88
    28.6200        94
    28.6400        90
    28.6600        82
    28.6800        78
    28.7000        84
    28.7200        70
    28.7400        76
    28.7600       104
    28.7800        98
    28.8000       112
    28.8200        92
    28.8400        94
    28.8600        90
    28.8800       112
    28.9000       104
    28.9200       102
    28.9400       110
    28.9600       102
    28.9800        82
    29.0000        96
    29.0200        76
    29.0400        98
    29.0600        62
    29.0800        78
    29.1000        72
    29.1200        80
    29.1400        80
    29.1600        84
    29.1800        58
    29.2000        78
    29.2200        64
    29.2400        96
    29.2600        86
    29.2800       104
    29.3000        86
    29.3200        84
    29.3400        96
    29.3600        84
    29.3800        96
    29.4000       104
    29.4200       104
    29.4400       128
    29.4600       152
    29.4800       156
    29.5000       166
    29.5200       198
    29.5400       216
    29.5600       200
    29.5800       246
    29.6000       274
    29.6200       340
    29.6400       374
    29.6600       366
    29.6800       452
    29.7000       470
    29.7200       514
    29.7400       584
    29.7600       714
    29.7800       828
    29.8000       932
    29.8200      1130
    29.8400      1188
    29.8600      1218
    29.8800      1144
    29.9000      1224
    29.9200      1224
    29.9400      1236
    29.9600      1244
    29.9800      1154
    30.0000      1060
    30.0200      1056
    30.0400      1004
    30.0600       882
    30.0800       808
    30.1000       720
    30.1200       546
    30.1400       462
    30.1600       380
    30.1800       284
    30.2000       250
    30.2200       168
    30.2400       156
    30.2600       106
    30.2800       110
    30.3000       100
    30.3200        66
    30.3400        82
    30.3600        70
    30.3800        64
    30.4000        60
    30.4200        74
    30.4400        56
    30.4600        60
    30.4800        60
    30.5000        60
    30.5200        50
    30.5400        50
    30.5600        54
    30.5800        58
    30.6000        52
    30.6200        46
    30.6400        52
    30.6600        56
    30.6800        52
    30.7000        46
    30.7200        64
    30.7400        64
    30.7600        58
    30.7800        60
    30.8000        60
    30.8200        42
    30.8400        42
    30.8600        74
    30.8800        56
    30.9000        48
    30.9200        50
    30.9400        64
    30.9600        56
    30.9800        50
    31.0000        60
    31.0200        56
    31.0400        42
    31.0600        56
    31.0800        56
    31.1000        52
    31.1200        42
    31.1400        48
    31.1600        50
    31.1800        52
    31.2000        66
    31.2200        58
    31.2400        48
    31.2600        44
    31.2800        54
    31.3000        50
    31.3200        62
    31.3400        48
    31.3600        58
    31.3800        36
    31.4000        50
    31.4200        64
    31.4400        54
    31.4600        46
    31.4800        64
    31.5000        70
    31.5200        62
    31.5400        68
    31.5600        90
    31.5800        68
    31.6000        90
    31.6200        88
    31.6400       106
    31.6600       108
    31.6800       108
    31.7000       124
    31.7200       152
    31.7400       168
    31.7600       212
    31.7800       190
    31.8000       240
    31.8200       224
    31.8400       212
    31.8600       214
    31.8800       176
    31.9000       156
    31.9200       164
    31.9400       164
    31.9600       106
    31.9800       120
    32.0000       104
    32.0200        78
    32.0400        92
    32.0600        74
    32.0800        52
    32.1000        66
    32.1200        52
    32.1400        60
    32.1600        68
    32.1800        54
    32.2000        58
    32.2200        56
    32.2400        64
    32.2600        62
    32.2800        70
    32.3000        62
    32.3200        66
    32.3400        68
    32.3600        68
    32.3800        76
    32.4000       100
    32.4200       106
    32.4400       100
    32.4600        82
    32.4800       126
    32.5000       170
    32.5200       180
    32.5400       182
    32.5600       204
    32.5800       250
    32.6000       302
    32.6200       274
    32.6400       342
    32.6600       338
    32.6800       384
    32.7000       382
    32.7200       390
    32.7400       390
    32.7600       376
    32.7800       384
    32.8000       402
    32.8200       374
    32.8400       366
    32.8600       338
    32.8800       320
    32.9000       234
    32.9200       234
    32.9400       208
    32.9600       190
    32.9800       126
    33.0000       104
    33.0200        82
    33.0400        86
    33.0600        64
    33.0800        70
    33.1000        52
    33.1200        56
    33.1400        48
    33.1600        58
    33.1800        50
    33.2000        56
    33.2200        52
    33.2400        58
    33.2600        52
    33.2800        52
    33.3000        62
    33.3200        92
    33.3400        72
    33.3600        68
    33.3800        72
    33.4000        78
    33.4200        90
    33.4400        96
    33.4600        66
    33.4800        74
    33.5000        66
    33.5200        72
    33.5400        82
    33.5600        52
    33.5800        44
    33.6000        56
    33.6200        56
    33.6400        44
    33.6600        54
    33.6800        60
    33.7000        40
    33.7200        46
    33.7400        58
    33.7600        44
    33.7800        36
    33.8000        42
    33.8200        44
    33.8400        50
    33.8600        36
    33.8800        62
    33.9000        40
    33.9200        44
    33.9400        52
    33.9600        58
    33.9800        38
    34.0000        56
    34.0200        50
    34.0400        48
    34.0600        54
    34.0800        32
    34.1000        54
    34.1200        46
    34.1400        36
    34.1600        38
    34.1800        48
    34.2000        38
    34.2200        46
    34.2400        52
    34.2600        54
    34.2800        42
    34.3000        44
    34.3200        42
    34.3400        50
    34.3600        38
    34.3800        28
    34.4000        40
    34.4200        48
    34.4400        46
    34.4600        40
    34.4800        50
    34.5000        30
    34.5200        54
    34.5400        64
    34.5600        50
    34.5800        48
    34.6000        54
    34.6200        50
    34.6400        42
    34.6600        48
    34.6800        46
    34.7000        56
    34.7200        64
    34.7400        48
    34.7600        60
    34.7800        42
    34.8000        46
    34.8200        46
    34.8400        46
    34.8600        48
    34.8800        40
    34.9000        58
    34.9200        50
    34.9400        70
    34.9600        58
    34.9800        62
    35.0000        70
    35.0200        64
    35.0400        76
    35.0600        62
    35.0800        74
    35.1000        68
    35.1200        80
    35.1400        80
    35.1600        82
    35.1800        82
    35.2000        90
    35.2200       108
    35.2400        98
    35.2600       122
    35.2800       160
    35.3000       148
    35.3200       158
    35.3400       220
    35.3600       226
    35.3800       236
    35.4000       228
    35.4200       236
    35.4400       262
    35.4600       238
    35.4800       272
    35.5000       218
    35.5200       264
    35.5400       224
    35.5600       254
    35.5800       236
    35.6000       202
    35.6200       200
    35.6400       162
    35.6600       166
    35.6800       130
    35.7000        94
    35.7200        90
    35.7400        82
    35.7600        74
    35.7800        72
    35.8000        72
    35.8200        62
    35.8400        56
    35.8600        66
    35.8800        84
    35.9000        82
    35.9200        74
    35.9400        62
    35.9600        82
    35.9800        80
    36.0000        88
    36.0200        92
    36.0400        70
    36.0600        62
    36.0800        86
    36.1000        86
    36.1200        84
    36.1400        80
    36.1600        82
    36.1800        70
    36.2000        96
    36.2200        82
    36.2400        92
    36.2600        68
    36.2800       100
    36.3000       104
    36.3200        94
    36.3400        94
    36.3600       106
    36.3800        94
    36.4000       104
    36.4200        90
    36.4400        90
    36.4600       100
    36.4800        78
    36.5000        92
    36.5200       116
    36.5400        86
    36.5600        84
    36.5800       102
    36.6000       118
    36.6200       104
    36.6400       114
    36.6600       120
    36.6800       104
    36.7000       112
    36.7200       138
    36.7400       122
    36.7600       118
    36.7800       116
    36.8000       124
    36.8200       120
    36.8400       110
    36.8600       100
    36.8800       112
    36.9000       116
    36.9200       104
    36.9400       124
    36.9600       108
    36.9800        90
    37.0000        98
    37.0200        82
    37.0400        86
    37.0600        92
    37.0800        96
    37.1000        86
    37.1200        66
    37.1400        74
    37.1600        56
    37.1800        44
    37.2000        66
    37.2200        52
    37.2400        42
    37.2600        52
    37.2800        56
    37.3000        50
    37.3200        44
    37.3400        62
    37.3600        42
    37.3800        64
    37.4000        52
    37.4200        48
    37.4400        52
    37.4600        56
    37.4800        56
    37.5000        58
    37.5200        66
    37.5400        76
    37.5600        76
    37.5800        76
    37.6000        70
    37.6200        82
    37.6400        80
    37.6600        74
    37.6800        68
    37.7000        74
    37.7200        70
    37.7400        60
    37.7600        60
    37.7800        42
    37.8000        80
    37.8200        60
    37.8400        58
    37.8600        64
    37.8800        58
    37.9000        62
    37.9200        70
    37.9400        60
    37.9600        78
    37.9800        72
    38.0000        64
    38.0200        82
    38.0400        80
    38.0600        76
    38.0800        78
    38.1000        60
    38.1200        56
    38.1400        48
    38.1600        66
    38.1800        78
    38.2000        68
    38.2200        64
    38.2400        56
    38.2600        64
    38.2800        44
    38.3000        78
    38.3200        52
    38.3400        52
    38.3600        62
    38.3800        50
    38.4000        54
    38.4200        72
    38.4400        42
    38.4600        50
    38.4800        44
    38.5000        56
    38.5200        74
    38.5400        54
    38.5600        60
    38.5800        60
    38.6000        62
    38.6200        64
    38.6400        76
    38.6600        80
    38.6800        74
    38.7000        78
    38.7200        84
    38.7400        96
    38.7600        84
    38.7800       100
    38.8000        72
    38.8200        78
    38.8400        88
    38.8600       100
    38.8800       102
    38.9000       100
    38.9200       112
    38.9400        78
    38.9600       102
    38.9800        92
    39.0000       102
    39.0200        90
    39.0400        90
    39.0600       114
    39.0800        72
    39.1000        80
    39.1200        88
    39.1400        98
    39.1600        90
    39.1800        86
    39.2000        60
    39.2200        82
    39.2400        74
    39.2600        74
    39.2800        64
    39.3000        70
    39.3200        64
    39.3400        56
    39.3600        58
    39.3800        60
    39.4000        64
    39.4200        74
    39.4400        66
    39.4600        66
    39.4800        56
    39.5000        56
    39.5200        56
    39.5400        76
    39.5600        66
    39.5800        60
    39.6000        66
    39.6200        54
    39.6400        74
    39.6600        60
    39.6800        58
    39.7000        54
    39.7200        48
    39.7400        50
    39.7600        54
    39.7800        52
    39.8000        54
    39.8200        48
    39.8400        54
    39.8600        62
    39.8800        60
    39.9000        50
    39.9200        58
    39.9400        68
    39.9600        70
    39.9800        80
    40.0000        84
    40.0200        94
    40.0400       122
    40.0600        96
    40.0800       158
    40.1000       188
    40.1200       192
    40.1400       208
    40.1600       234
    40.1800       252
    40.2000       234
    40.2200       226
    40.2400       224
    40.2600       244
    40.2800       212
    40.3000       228
    40.3200       264
    40.3400       304
    40.3600       270
    40.3800       206
    40.4000       186
    40.4200       202
    40.4400       146
    40.4600       152
    40.4800       116
    40.5000        94
    40.5200        64
    40.5400        82
    40.5600        66
    40.5800        52
    40.6000        56
    40.6200        58
    40.6400        66
    40.6600        60
    40.6800        72
    40.7000        56
    40.7200        42
    40.7400        44
    40.7600        60
    40.7800        50
    40.8000        56
    40.8200        74
    40.8400        62
    40.8600        52
    40.8800        70
    40.9000        42
    40.9200        60
    40.9400        50
    40.9600        56
    40.9800        62
    41.0000        48
    41.0200        50
    41.0400        38
    41.0600        60
    41.0800        56
    41.1000        56
    41.1200        56
    41.1400        56
    41.1600        46
    41.1800        64
    41.2000        48
    41.2200        56
    41.2400        38
    41.2600        58
    41.2800        58
    41.3000        48
    41.3200        50
    41.3400        46
    41.3600        50
    41.3800        46
    41.4000        40
    41.4200        42
    41.4400        56
    41.4600        46
    41.4800        42
    41.5000        44
    41.5200        48
    41.5400        56
    41.5600        54
    41.5800        36
    41.6000        46
    41.6200        60
    41.6400        38
    41.6600        52
    41.6800        46
    41.7000        70
    41.7200        68
    41.7400        72
    41.7600        78
    41.7800        74
    41.8000        90
    41.8200        98
    41.8400        96
    41.8600       100
    41.8800        92
    41.9000        86
    41.9200        88
    41.9400        78
    41.9600        78
    41.9800        60
    42.0000        74
    42.0200        72
    42.0400        82
    42.0600        86
    42.0800        84
    42.1000        82
    42.1200        72
    42.1400        70
    42.1600        66
    42.1800        72
    42.2000        62
    42.2200        76
    42.2400        68
    42.2600        76
    42.2800        76
    42.3000        88
    42.3200        72
    42.3400        78
    42.3600        98
    42.3800       102
    42.4000        98
    42.4200        86
    42.4400       106
    42.4600       108
    42.4800       118
    42.5000       112
    42.5200       118
    42.5400       112
    42.5600       110
    42.5800       116
    42.6000        92
    42.6200        88
    42.6400        88
    42.6600        72
    42.6800        78
    42.7000        90
    42.7200        54
    42.7400        62
    42.7600        56
    42.7800        56
    42.8000        64
    42.8200        48
    42.8400        48
    42.8600        40
    42.8800        50
    42.9000        52
    42.9200        46
    42.9400        44
    42.9600        62
    42.9800        66
    43.0000        52
    43.0200        76
    43.0400        60
    43.0600        76
    43.0800        76
    43.1000        66
    43.1200        90
    43.1400        92
    43.1600        98
    43.1800        64
    43.2000        74
    43.2200        74
    43.2400        66
    43.2600        82
    43.2800        72
    43.3000        52
    43.3200        68
    43.3400        54
    43.3600        66
    43.3800        60
    43.4000        68
    43.4200        70
    43.4400        76
    43.4600        80
    43.4800        64
    43.5000        78
    43.5200        74
    43.5400        68
    43.5600        76
    43.5800        64
    43.6000        76
    43.6200        84
    43.6400        80
    43.6600        84
    43.6800        54
    43.7000        50
    43.7200        64
    43.7400        54
    43.7600        52
    43.7800        46
    43.8000        60
    43.8200        60
    43.8400        48
    43.8600        50
    43.8800        62
    43.9000        70
    43.9200        48
    43.9400        54
    43.9600        52
    43.9800        52
    44.0000        60
    44.0200        50
    44.0400        50
    44.0600        60
    44.0800        42
    44.1000        42
    44.1200        58
    44.1400        50
    44.1600        52
    44.1800        50
    44.2000        46
    44.2200        42
    44.2400        62
    44.2600        38
    44.2800        58
    44.3000        40
    44.3200        38
    44.3400        40
    44.3600        52
    44.3800        50
    44.4000        54
    44.4200        44
    44.4400        56
    44.4600        66
    44.4800        60
    44.5000        74
    44.5200        64
    44.5400        60
    44.5600        68
    44.5800        52
    44.6000        70
    44.6200        54
    44.6400        62
    44.6600        98
    44.6800        74
    44.7000        88
    44.7200        88
    44.7400        80
    44.7600        78
    44.7800        86
    44.8000        78
    44.8200        90
    44.8400        56
    44.8600        52
    44.8800        62
    44.9000        46
    44.9200        60
    44.9400        50
    44.9600        54
    44.9800        38
    45.0000        58
    45.0200        46
    45.0400        60
    45.0600        42
    45.0800        50
    45.1000        54
    45.1200        52
    45.1400        66
    45.1600        36
    45.1800        44
    45.2000        46
    45.2200        46
    45.2400        40
    45.2600        38
    45.2800        64
    45.3000        48
    45.3200        46
    45.3400        50
    45.3600        64
    45.3800        46
    45.4000        62
    45.4200        52
    45.4400        84
    45.4600        72
    45.4800        58
    45.5000        66
    45.5200        72
    45.5400        58
    45.5600        64
    45.5800        52
    45.6000        56
    45.6200        66
    45.6400        80
    45.6600        86
    45.6800        98
    45.7000       110
    45.7200       126
    45.7400       114
    45.7600       136
    45.7800       164
    45.8000       160
    45.8200       160
    45.8400       158
    45.8600       142
    45.8800       184
    45.9000       154
    45.9200       166
    45.9400       184
    45.9600       188
    45.9800       180
    46.0000       164
    46.0200       178
    46.0400       184
    46.0600       172
    46.0800       144
    46.1000       150
    46.1200       148
    46.1400       184
    46.1600       156
    46.1800       146
    46.2000       106
    46.2200       128
    46.2400        94
    46.2600       104
    46.2800        96
    46.3000        80
    46.3200        74
    46.3400        68
    46.3600        82
    46.3800        66
    46.4000        58
    46.4200        60
    46.4400        86
    46.4600        56
    46.4800        62
    46.5000        66
    46.5200        54
    46.5400        68
    46.5600        58
    46.5800        58
    46.6000        56
    46.6200        56
    46.6400        58
    46.6600        62
    46.6800        50
    46.7000        60
    46.7200        66
    46.7400        58
    46.7600        54
    46.7800        62
    46.8000        44
    46.8200        52
    46.8400        46
    46.8600        48
    46.8800        56
    46.9000        58
    46.9200        50
    46.9400        58
    46.9600        60
    46.9800        54
    47.0000        66
    47.0200        72
    47.0400        70
    47.0600        84
    47.0800        92
    47.1000       104
    47.1200        96
    47.1400        96
    47.1600        74
    47.1800        84
    47.2000       104
    47.2200       122
    47.2400       108
    47.2600        94
    47.2800       106
    47.3000       122
    47.3200       104
    47.3400       116
    47.3600       100
    47.3800        92
    47.4000        82
    47.4200        88
    47.4400        78
    47.4600        74
    47.4800        72
    47.5000        62
    47.5200        62
    47.5400        72
    47.5600        58
    47.5800        54
    47.6000        46
    47.6200        32
    47.6400        50
    47.6600        34
    47.6800        54
    47.7000        44
    47.7200        38
    47.7400        34
    47.7600        44
    47.7800        48
    47.8000        32
    47.8200        40
    47.8400        46
    47.8600        46
    47.8800        52
    47.9000        44
    47.9200        40
    47.9400        44
    47.9600        52
    47.9800        36
    48.0000        44
    48.0200        36
    48.0400        36
    48.0600        44
    48.0800        38
    48.1000        48
    48.1200        36
    48.1400        48
    48.1600        52
    48.1800        50
    48.2000        50
    48.2200        46
    48.2400        36
    48.2600        42
    48.2800        34
    48.3000        32
    48.3200        58
    48.3400        42
    48.3600        52
    48.3800        50
    48.4000        34
    48.4200        44
    48.4400        40
    48.4600        48
    48.4800        38
    48.5000        48
    48.5200        58
    48.5400        48
    48.5600        54
    48.5800        52
    48.6000        50
    48.6200        52
    48.6400        68
    48.6600        64
    48.6800        54
    48.7000        80
    48.7200        64
    48.7400        60
    48.7600        78
    48.7800        82
    48.8000        80
    48.8200        66
    48.8400        74
    48.8600        80
    48.8800        96
    48.9000        88
    48.9200       116
    48.9400       102
    48.9600        96
    48.9800       108
    49.0000       104
    49.0200        86
    49.0400        90
    49.0600        78
    49.0800        82
    49.1000        62
    49.1200        64
    49.1400        60
    49.1600        60
    49.1800        50
    49.2000        34
    49.2200        46
    49.2400        34
    49.2600        34
    49.2800        40
    49.3000        54
    49.3200        40
    49.3400        46
    49.3600        42
    49.3800        44
    49.4000        44
    49.4200        50
    49.4400        44
    49.4600        52
    49.4800        68
    49.5000        46
    49.5200        40
    49.5400        46
    49.5600        48
    49.5800        42
    49.6000        54
    49.6200        38
    49.6400        44
    49.6600        60
    49.6800        54
    49.7000        72
    49.7200        62
    49.7400        64
    49.7600        68
    49.7800        76
    49.8000        56
    49.8200        56
    49.8400        76
    49.8600        64
    49.8800        64
    49.9000        58
    49.9200        56
    49.9400        72
    49.9600        74
    49.9800        62
    50.0000        66
    50.0200        58
    50.0400        46
    50.0600        72
    50.0800        42
    50.1000        50
    50.1200        58
    50.1400        72
    50.1600        54
    50.1800        68
    50.2000        60
    50.2200        50
    50.2400        48
    50.2600        58
    50.2800        40
    50.3000        42
    50.3200        54
    50.3400        36
    50.3600        54
    50.3800        56
    50.4000        52
    50.4200        58
    50.4400        60
    50.4600        56
    50.4800        50
    50.5000        54
    50.5200        68
    50.5400        54
    50.5600        60
    50.5800        70
    50.6000        66
    50.6200        70
    50.6400       110
    50.6600        90
    50.6800        94
    50.7000       140
    50.7200       160
    50.7400       184
    50.7600       228
    50.7800       260
    50.8000       336
    50.8200       358
    50.8400       402
    50.8600       442
    50.8800       452
    50.9000       428
    50.9200       364
    50.9400       380
    50.9600       390
    50.9800       446
    51.0000       450
    51.0200       462
    51.0400       462
    51.0600       538
    51.0800       588
    51.1000       590
    51.1200       476
    51.1400       372
    51.1600       352
    51.1800       316
    51.2000       308
    51.2200       346
    51.2400       266
    51.2600       236
    51.2800       196
    51.3000       156
    51.3200       158
    51.3400       126
    51.3600       126
    51.3800       114
    51.4000        94
    51.4200       100
    51.4400       112
    51.4600       120
    51.4800       128
    51.5000        98
    51.5200       110
    51.5400        94
    51.5600       110
    51.5800       112
    51.6000       112
    51.6200       108
    51.6400       114
    51.6600       108
    51.6800       100
    51.7000       116
    51.7200        98
    51.7400        82
    51.7600        82
    51.7800        84
    51.8000        88
    51.8200        74
    51.8400       100
    51.8600        72
    51.8800        86
    51.9000        82
    51.9200        74
    51.9400        82
    51.9600        70
    51.9800        66
    52.0000        80
    52.0200        70
    52.0400        64
    52.0600        72
    52.0800        62
    52.1000        82
    52.1200        56
    52.1400        78
    52.1600        74
    52.1800        60
    52.2000        78
    52.2200        70
    52.2400        70
    52.2600        60
    52.2800        90
    52.3000        86
    52.3200        86
    52.3400        92
    52.3600        86
    52.3800        98
    52.4000        76
    52.4200        86
    52.4400        90
    52.4600        84
    52.4800        64
    52.5000        82
    52.5200        76
    52.5400        78
    52.5600        92
    52.5800        94
    52.6000       104
    52.6200       104
    52.6400        80
    52.6600        88
    52.6800       104
    52.7000       128
    52.7200       138
    52.7400       150
    52.7600       118
    52.7800       142
    52.8000       164
    52.8200       170
    52.8400       164
    52.8600       178
    52.8800       184
    52.9000       198
    52.9200       186
    52.9400       184
    52.9600       190
    52.9800       186
    53.0000       248
    53.0200       198
    53.0400       190
    53.0600       194
    53.0800       170
    53.1000       156
    53.1200       156
    53.1400       144
    53.1600       134
    53.1800       134
    53.2000       102
    53.2200       104
    53.2400       108
    53.2600        96
    53.2800        66
    53.3000        68
    53.3200        78
    53.3400        68
    53.3600        62
    53.3800        60
    53.4000        44
    53.4200        54
    53.4400        60
    53.4600        72
    53.4800        48
    53.5000        50
    53.5200        60
    53.5400        50
    53.5600        46
    53.5800        48
    53.6000        54
    53.6200        40
    53.6400        42
    53.6600        50
    53.6800        54
    53.7000        52
    53.7200        56
    53.7400        58
    53.7600        70
    53.7800        52
    53.8000        76
    53.8200        52
    53.8400        64
    53.8600        78
    53.8800        76
    53.9000        72
    53.9200        64
    53.9400        78
    53.9600        68
    53.9800        74
    54.0000        62
    54.0200        68
    54.0400        78
    54.0600        46
    54.0800        62
    54.1000        58
    54.1200        56
    54.1400        58
    54.1600        52
    54.1800        48
    54.2000        50
    54.2200        60
    54.2400        56
    54.2600        48
    54.2800        50
    54.3000        52
    54.3200        34
    54.3400        50
    54.3600        50
    54.3800        50
    54.4000        48
    54.4200        42
    54.4400        52
    54.4600        58
    54.4800        50
    54.5000        52
    54.5200        50
    54.5400        48
    54.5600        44
    54.5800        30
    54.6000        56
    54.6200        30
    54.6400        40
    54.6600        46
    54.6800        52
    54.7000        58
    54.7200        48
    54.7400        56
    54.7600        54
    54.7800        66
    54.8000        50
    54.8200        40
    54.8400        70
    54.8600        64
    54.8800        58
    54.9000        60
    54.9200        52
    54.9400        60
    54.9600        46
    54.9800        40
    55.0000        40
    55.0200        44
    55.0400        56
    55.0600        62
    55.0800        44
    55.1000        58
    55.1200        46
    55.1400        36
    55.1600        36
    55.1800        60
    55.2000        40
    55.2200        38
    55.2400        44
    55.2600        40
    55.2800        58
    55.3000        64
    55.3200        58
    55.3400        66
    55.3600        52
    55.3800        70
    55.4000        70
    55.4200        72
    55.4400        76
    55.4600        80
    55.4800        88
    55.5000        72
    55.5200        86
    55.5400        94
    55.5600        84
    55.5800        74
    55.6000        88
    55.6200        74
    55.6400        78
    55.6600        82
    55.6800        68
    55.7000        76
    55.7200        66
    55.7400        64
    55.7600        60
    55.7800        80
    55.8000        52
    55.8200        76
    55.8400        70
    55.8600        70
    55.8800        60
    55.9000        56
    55.9200        54
    55.9400        50
    55.9600        54
    55.9800        62
    56.0000        46
    56.0200        52
    56.0400        68
    56.0600        48
    56.0800        76
    56.1000        54
    56.1200        72
    56.1400        72
    56.1600        62
    56.1800        54
    56.2000        56
    56.2200        46
    56.2400        66
    56.2600        56
    56.2800        60
    56.3000        64
    56.3200        84
    56.3400        92
    56.3600        82
    56.3800        86
    56.4000        72
    56.4200        54
    56.4400        62
    56.4600        72
    56.4800        82
    56.5000        54
    56.5200        66
    56.5400        64
    56.5600        60
    56.5800        52
    56.6000        54
    56.6200        58
    56.6400        60
    56.6600        64
    56.6800        50
    56.7000        56
    56.7200        52
    56.7400        60
    56.7600        54
    56.7800        62
    56.8000        62
    56.8200        62
    56.8400        62
    56.8600        74
    56.8800        64
    56.9000        64
    56.9200        48
    56.9400        62
    56.9600        54
    56.9800        54
    57.0000        38
    57.0200        46
    57.0400        48
    57.0600        34
    57.0800        46
    57.1000        38
    57.1200        42
    57.1400        50
    57.1600        42
    57.1800        36
    57.2000        38
    57.2200        46
    57.2400        50
    57.2600        40
    57.2800        46
    57.3000        38
    57.3200        48
    57.3400        40
    57.3600        32
    57.3800        32
    57.4000        44
    57.4200        42
    57.4400        42
    57.4600        36
    57.4800        34
    57.5000        54
    57.5200        50
    57.5400        42
    57.5600        60
    57.5800        56
    57.6000        44
    57.6200        66
    57.6400        58
    57.6600        50
    57.6800        62
    57.7000        62
    57.7200        62
    57.7400        74
    57.7600        64
    57.7800        52
    57.8000        94
    57.8200        94
    57.8400        68
    57.8600        88
    57.8800        82
    57.9000        68
    57.9200        66
    57.9400        60
    57.9600        64
    57.9800        72
    58.0000        62
    58.0200        50
    58.0400        60
    58.0600        62
    58.0800        66
    58.1000        62
    58.1200        52
    58.1400        36
    58.1600        46
    58.1800        42
    58.2000        30
    58.2200        48
    58.2400        50
    58.2600        38
    58.2800        42
    58.3000        44
    58.3200        42
    58.3400        48
    58.3600        48
    58.3800        46
    58.4000        48
    58.4200        46
    58.4400        38
    58.4600        46
    58.4800        52
    58.5000        46
    58.5200        40
    58.5400        40
    58.5600        54
    58.5800        48
    58.6000        36
    58.6200        54
    58.6400        50
    58.6600        42
    58.6800        42
    58.7000        36
    58.7200        36
    58.7400        42
    58.7600        34
    58.7800        44
    58.8000        48
    58.8200        56
    58.8400        38
    58.8600        42
    58.8800        54
    58.9000        38
    58.9200        50
    58.9400        58
    58.9600        66
    58.9800        58
    59.0000        66
    59.0200        44
    59.0400        62
    59.0600        62
    59.0800        62
    59.1000        74
    59.1200        72
    59.1400        74
    59.1600        78
    59.1800        68
    59.2000        72
    59.2200        70
    59.2400        80
    59.2600        50
    59.2800        70
    59.3000        62
    59.3200        72
    59.3400        58
    59.3600        64
    59.3800        72
    59.4000        48
    59.4200        74
    59.4400        64
    59.4600        56
    59.4800        62
    59.5000        68
    59.5200        68
    59.5400        50
    59.5600        62
    59.5800        70
    59.6000        66
    59.6200        42
    59.6400        68
    59.6600        50
    59.6800        52
    59.7000        44
    59.7200        48
    59.7400        44
    59.7600        58
    59.7800        48
    59.8000        44
    59.8200        54
    59.8400        56
    59.8600        32
    59.8800        48
    59.9000        54
    59.9200        44
    59.9400        48
    59.9600        40
    59.9800        56
    60.0000        56
    60.0200        48
    60.0400        58
    60.0600        34
    60.0800        54
    60.1000        42
    60.1200        42
    60.1400        60
    60.1600        42
    60.1800        44
    60.2000        50
    60.2200        38
    60.2400        36
    60.2600        44
    60.2800        40
    60.3000        42
    60.3200        38
    60.3400        32
    60.3600        56
    60.3800        54
    60.4000        64
    60.4200        52
    60.4400        62
    60.4600        64
    60.4800        58
    60.5000        52
    60.5200        46
    60.5400        62
    60.5600        52
    60.5800        60
    60.6000        56
    60.6200        58
    60.6400        52
    60.6600        56
    60.6800        54
    60.7000        60
    60.7200        70
    60.7400        58
    60.7600        70
    60.7800        68
    60.8000        52
    60.8200        66
    60.8400        70
    60.8600        58
    60.8800        52
    60.9000        68
    60.9200        58
    60.9400        62
    60.9600        64
    60.9800        42
    61.0000        52
    61.0200        40
    61.0400        50
    61.0600        48
    61.0800        46
    61.1000        56
    61.1200        38
    61.1400        60
    61.1600        52
    61.1800        38
    61.2000        38
    61.2200        44
    61.2400        44
    61.2600        48
    61.2800        44
    61.3000        24
    61.3200        54
    61.3400        26
    61.3600        34
    61.3800        42
    61.4000        40
    61.4200        34
    61.4400        38
    61.4600        28
    61.4800        42
    61.5000        48
    61.5200        38
    61.5400        42
    61.5600        32
    61.5800        24
    61.6000        52
    61.6200        42
    61.6400        50
    61.6600        46
    61.6800        46
    61.7000        42
    61.7200        54
    61.7400        48
    61.7600        34
    61.7800        62
    61.8000        54
    61.8200        48
    61.8400        56
    61.8600        62
    61.8800        74
    61.9000        64
    61.9200        62
    61.9400        88
    61.9600       108
    61.9800       142
    62.0000       156
    62.0200       158
    62.0400       144
    62.0600       180
    62.0800       176
    62.1000       130
    62.1200       152
    62.1400       150
    62.1600       158
    62.1800       182
    62.2000       180
    62.2200       144
    62.2400       170
    62.2600       164
    62.2800       180
    62.3000       238
    62.3200       240
    62.3400       284
    62.3600       240
    62.3800       222
    62.4000       240
    62.4200       178
    62.4400       194
    62.4600       156
    62.4800       150
    62.5000       186
    62.5200       172
    62.5400       142
    62.5600       146
    62.5800       118
    62.6000       116
    62.6200       112
    62.6400        88
    62.6600        88
    62.6800        94
    62.7000        62
    62.7200        88
    62.7400        78
    62.7600        70
    62.7800        64
    62.8000        84
    62.8200        58
    62.8400        68
    62.8600        78
    62.8800        60
    62.9000        62
    62.9200        68
    62.9400        54
    62.9600        68
    62.9800        60
    63.0000        38
    63.0200        42
    63.0400        46
    63.0600        56
    63.0800        62
    63.1000        48
    63.1200        68
    63.1400        74
    63.1600        78
    63.1800        72
    63.2000        68
    63.2200        96
    63.2400        82
    63.2600        84
    63.2800        58
    63.3000        80
    63.3200        90
    63.3400        78
    63.3600        80
    63.3800        72
    63.4000        80
    63.4200        74
    63.4400        92
    63.4600        98
    63.4800        98
    63.5000        94
    63.5200        94
    63.5400        78
    63.5600        86
    63.5800        78
    63.6000        74
    63.6200        80
    63.6400        82
    63.6600        94
    63.6800        68
    63.7000        90
    63.7200       100
    63.7400        78
    63.7600        82
    63.7800        68
    63.8000        68
    63.8200        66
    63.8400        60
    63.8600        58
    63.8800        90
    63.9000        74
    63.9200        62
    63.9400        64
    63.9600        66
    63.9800        76
    64.0000        58
    64.0200        72
    64.0400        48
    64.0600        64
    64.0800        54
    64.1000        64
    64.1200        64
    64.1400        62
    64.1600        48
    64.1800        52
    64.2000        54
    64.2200        54
    64.2400        38
    64.2600        46
    64.2800        46
    64.3000        42
    64.3200        50
    64.3400        44
    64.3600        56
    64.3800        48
    64.4000        56
    64.4200        44
    64.4400        48
    64.4600        54
    64.4800        46
    64.5000        54
    64.5200        48
    64.5400        64
    64.5600        52
    64.5800        76
    64.6000        64
    64.6200        74
    64.6400        54
    64.6600        76
    64.6800        82
    64.7000        96
    64.7200        88
    64.7400        76
    64.7600        82
    64.7800        84
    64.8000        94
    64.8200        62
    64.8400        80
    64.8600        96
    64.8800        74
    64.9000        78
    64.9200        64
    64.9400        72
    64.9600        82
    64.9800        68
    65.0000        66
