/////////////////////////////////////////////////////////////////////////////////
/// Profile Data Ascii Dump (XRD)                                             ///
/////////////////////////////////////////////////////////////////////////////////

  Group     : Swayze
  Data      : GDS41
  File Name : GDS41.RAW

# Profile Datafile
          comment             = Nontronite 
          date & time         = 08-03-24 07:17:59 

# Measurement Condition
    X-ray tube
          target              = Cu 
          voltage             = 40.0 (kV)
          current             = 30.0 (mA)
    Slits
          divergence slit     = 2.00000 (deg) 
          scatter slit        = 2.00000 (deg) 
          receiving slit      = 0.15000 (mm)  
    Scanning
          drive axis          = Theta-2Theta 
          scan range          =    4.000 -   65.000 
          scan mode           = Continuous Scan 
          scan speed          =   2.0000 (deg/min) 
          sampling pitch      =   0.0200 (deg) 
          preset time         =   0.60 (sec) 

# Data      [ Total No. = 3051 ]
  <2Theta>   <   I   >
     4.0000       202
     4.0200       178
     4.0400       218
     4.0600       198
     4.0800       182
     4.1000       194
     4.1200       174
     4.1400       194
     4.1600       188
     4.1800       202
     4.2000       198
     4.2200       162
     4.2400       186
     4.2600       152
     4.2800       168
     4.3000       212
     4.3200       180
     4.3400       180
     4.3600       170
     4.3800       172
     4.4000       188
     4.4200       214
     4.4400       184
     4.4600       196
     4.4800       172
     4.5000       198
     4.5200       180
     4.5400       178
     4.5600       180
     4.5800       188
     4.6000       188
     4.6200       206
     4.6400       150
     4.6600       172
     4.6800       188
     4.7000       174
     4.7200       188
     4.7400       174
     4.7600       156
     4.7800       152
     4.8000       180
     4.8200       172
     4.8400       180
     4.8600       176
     4.8800       196
     4.9000       170
     4.9200       166
     4.9400       178
     4.9600       156
     4.9800       186
     5.0000       178
     5.0200       184
     5.0400       150
     5.0600       170
     5.0800       170
     5.1000       170
     5.1200       176
     5.1400       164
     5.1600       190
     5.1800       168
     5.2000       200
     5.2200       180
     5.2400       198
     5.2600       184
     5.2800       162
     5.3000       196
     5.3200       174
     5.3400       170
     5.3600       190
     5.3800       154
     5.4000       168
     5.4200       196
     5.4400       176
     5.4600       180
     5.4800       188
     5.5000       178
     5.5200       198
     5.5400       180
     5.5600       194
     5.5800       164
     5.6000       176
     5.6200       198
     5.6400       168
     5.6600       204
     5.6800       184
     5.7000       190
     5.7200       198
     5.7400       188
     5.7600       182
     5.7800       184
     5.8000       196
     5.8200       184
     5.8400       192
     5.8600       204
     5.8800       238
     5.9000       214
     5.9200       212
     5.9400       200
     5.9600       212
     5.9800       244
     6.0000       198
     6.0200       242
     6.0400       232
     6.0600       220
     6.0800       234
     6.1000       256
     6.1200       250
     6.1400       236
     6.1600       260
     6.1800       250
     6.2000       244
     6.2200       224
     6.2400       208
     6.2600       198
     6.2800       198
     6.3000       188
     6.3200       184
     6.3400       176
     6.3600       168
     6.3800       158
     6.4000       172
     6.4200       164
     6.4400       190
     6.4600       172
     6.4800       176
     6.5000       166
     6.5200       184
     6.5400       156
     6.5600       174
     6.5800       140
     6.6000       148
     6.6200       164
     6.6400       162
     6.6600       152
     6.6800       160
     6.7000       146
     6.7200       150
     6.7400       174
     6.7600       150
     6.7800       148
     6.8000       134
     6.8200       148
     6.8400       136
     6.8600       132
     6.8800       132
     6.9000       142
     6.9200       138
     6.9400       130
     6.9600       126
     6.9800       152
     7.0000       142
     7.0200       144
     7.0400       114
     7.0600       144
     7.0800       124
     7.1000       122
     7.1200       140
     7.1400       110
     7.1600       140
     7.1800       104
     7.2000       120
     7.2200       156
     7.2400       104
     7.2600       148
     7.2800       108
     7.3000       140
     7.3200       108
     7.3400       122
     7.3600       122
     7.3800       154
     7.4000       122
     7.4200       122
     7.4400       112
     7.4600       110
     7.4800       128
     7.5000       134
     7.5200       126
     7.5400       144
     7.5600       134
     7.5800       108
     7.6000       132
     7.6200       118
     7.6400       128
     7.6600       132
     7.6800       114
     7.7000       126
     7.7200       156
     7.7400       134
     7.7600       154
     7.7800       144
     7.8000       120
     7.8200       142
     7.8400       122
     7.8600       138
     7.8800       136
     7.9000       132
     7.9200       170
     7.9400       148
     7.9600       144
     7.9800       158
     8.0000       144
     8.0200       184
     8.0400       172
     8.0600       164
     8.0800       174
     8.1000       196
     8.1200       186
     8.1400       198
     8.1600       200
     8.1800       236
     8.2000       338
     8.2200       396
     8.2400       494
     8.2600       504
     8.2800       462
     8.3000       360
     8.3200       232
     8.3400       174
     8.3600       162
     8.3800       138
     8.4000       136
     8.4200       144
     8.4400       112
     8.4600       120
     8.4800       122
     8.5000       132
     8.5200       132
     8.5400       134
     8.5600       130
     8.5800       144
     8.6000       122
     8.6200       108
     8.6400       130
     8.6600       112
     8.6800       118
     8.7000       132
     8.7200       150
     8.7400       120
     8.7600       126
     8.7800       120
     8.8000       132
     8.8200       134
     8.8400       124
     8.8600       110
     8.8800       108
     8.9000       122
     8.9200       128
     8.9400       122
     8.9600       120
     8.9800       102
     9.0000       118
     9.0200       126
     9.0400       118
     9.0600       120
     9.0800       126
     9.1000       110
     9.1200       124
     9.1400       110
     9.1600       136
     9.1800       126
     9.2000       138
     9.2200       130
     9.2400       110
     9.2600        98
     9.2800       124
     9.3000       118
     9.3200       122
     9.3400       132
     9.3600       102
     9.3800       128
     9.4000       146
     9.4200       142
     9.4400       116
     9.4600       110
     9.4800       108
     9.5000       138
     9.5200       140
     9.5400       110
     9.5600       116
     9.5800       128
     9.6000       114
     9.6200       128
     9.6400       110
     9.6600       132
     9.6800       104
     9.7000       132
     9.7200       112
     9.7400       132
     9.7600       120
     9.7800       124
     9.8000       132
     9.8200       128
     9.8400       108
     9.8600       122
     9.8800       124
     9.9000       130
     9.9200       122
     9.9400       104
     9.9600       106
     9.9800       118
    10.0000       132
    10.0200       112
    10.0400       110
    10.0600       130
    10.0800       130
    10.1000       128
    10.1200       104
    10.1400       124
    10.1600       114
    10.1800       104
    10.2000       104
    10.2200       128
    10.2400        98
    10.2600       102
    10.2800       120
    10.3000       112
    10.3200       132
    10.3400       100
    10.3600       118
    10.3800       114
    10.4000       100
    10.4200       112
    10.4400       124
    10.4600       116
    10.4800       104
    10.5000       122
    10.5200       114
    10.5400        98
    10.5600       112
    10.5800       116
    10.6000       126
    10.6200       122
    10.6400       102
    10.6600       104
    10.6800       104
    10.7000       110
    10.7200       124
    10.7400       114
    10.7600       102
    10.7800       102
    10.8000       112
    10.8200        94
    10.8400       112
    10.8600       138
    10.8800       110
    10.9000       112
    10.9200       114
    10.9400       112
    10.9600       114
    10.9800       146
    11.0000       136
    11.0200       128
    11.0400       112
    11.0600       154
    11.0800       150
    11.1000       148
    11.1200       162
    11.1400       206
    11.1600       236
    11.1800       208
    11.2000       174
    11.2200       176
    11.2400       188
    11.2600       214
    11.2800       210
    11.3000       208
    11.3200       226
    11.3400       212
    11.3600       234
    11.3800       270
    11.4000       296
    11.4200       342
    11.4400       394
    11.4600       392
    11.4800       530
    11.5000       600
    11.5200       626
    11.5400       726
    11.5600       904
    11.5800       952
    11.6000       886
    11.6200       832
    11.6400       528
    11.6600       390
    11.6800       220
    11.7000       174
    11.7200       138
    11.7400       130
    11.7600       150
    11.7800       128
    11.8000       156
    11.8200       136
    11.8400       126
    11.8600       118
    11.8800       110
    11.9000       142
    11.9200       136
    11.9400       120
    11.9600       118
    11.9800       146
    12.0000       120
    12.0200       146
    12.0400       140
    12.0600       138
    12.0800       140
    12.1000       152
    12.1200       170
    12.1400       138
    12.1600       160
    12.1800       188
    12.2000       170
    12.2200       210
    12.2400       240
    12.2600       194
    12.2800       248
    12.3000       254
    12.3200       256
    12.3400       264
    12.3600       294
    12.3800       298
    12.4000       278
    12.4200       270
    12.4400       282
    12.4600       256
    12.4800       248
    12.5000       260
    12.5200       292
    12.5400       308
    12.5600       336
    12.5800       366
    12.6000       378
    12.6200       592
    12.6400       794
    12.6600       786
    12.6800       590
    12.7000       392
    12.7200       256
    12.7400       244
    12.7600       170
    12.7800       184
    12.8000       182
    12.8200       166
    12.8400       308
    12.8600       368
    12.8800       402
    12.9000       460
    12.9200       426
    12.9400       486
    12.9600       492
    12.9800       504
    13.0000       700
    13.0200       862
    13.0400      1084
    13.0600      1182
    13.0800      1044
    13.1000       752
    13.1200       530
    13.1400       350
    13.1600       232
    13.1800       158
    13.2000       122
    13.2200       120
    13.2400       106
    13.2600       102
    13.2800       108
    13.3000       100
    13.3200        88
    13.3400        92
    13.3600        94
    13.3800        82
    13.4000        94
    13.4200        84
    13.4400        70
    13.4600        78
    13.4800        82
    13.5000        82
    13.5200        84
    13.5400        76
    13.5600        82
    13.5800        82
    13.6000        66
    13.6200        80
    13.6400        80
    13.6600        88
    13.6800        76
    13.7000        94
    13.7200        96
    13.7400        84
    13.7600        76
    13.7800        86
    13.8000        68
    13.8200        70
    13.8400        90
    13.8600        88
    13.8800        68
    13.9000        62
    13.9200        80
    13.9400        76
    13.9600        72
    13.9800        90
    14.0000        84
    14.0200        62
    14.0400        74
    14.0600        80
    14.0800        78
    14.1000        84
    14.1200        74
    14.1400        74
    14.1600        84
    14.1800        68
    14.2000        76
    14.2200        66
    14.2400        78
    14.2600        68
    14.2800        72
    14.3000        76
    14.3200        78
    14.3400        78
    14.3600        74
    14.3800        84
    14.4000        88
    14.4200        86
    14.4400        74
    14.4600        62
    14.4800        84
    14.5000        80
    14.5200        72
    14.5400        72
    14.5600        80
    14.5800        72
    14.6000        72
    14.6200       106
    14.6400        76
    14.6600        78
    14.6800        70
    14.7000        72
    14.7200        60
    14.7400        64
    14.7600        80
    14.7800        72
    14.8000        78
    14.8200        74
    14.8400        82
    14.8600        88
    14.8800        84
    14.9000        76
    14.9200       110
    14.9400        64
    14.9600        78
    14.9800        74
    15.0000        80
    15.0200        90
    15.0400        86
    15.0600        96
    15.0800        88
    15.1000       100
    15.1200       104
    15.1400       108
    15.1600       124
    15.1800       160
    15.2000       172
    15.2200       196
    15.2400       188
    15.2600       178
    15.2800       194
    15.3000       202
    15.3200       240
    15.3400       274
    15.3600       306
    15.3800       326
    15.4000       300
    15.4200       326
    15.4400       258
    15.4600       268
    15.4800       174
    15.5000       130
    15.5200       100
    15.5400        92
    15.5600        96
    15.5800        86
    15.6000        84
    15.6200        68
    15.6400        80
    15.6600        82
    15.6800        84
    15.7000        80
    15.7200        92
    15.7400        92
    15.7600        82
    15.7800        80
    15.8000        60
    15.8200        84
    15.8400        70
    15.8600        80
    15.8800        78
    15.9000        78
    15.9200        88
    15.9400        80
    15.9600        68
    15.9800        86
    16.0000        88
    16.0200       102
    16.0400        80
    16.0600        78
    16.0800        88
    16.1000        94
    16.1200       106
    16.1400       128
    16.1600       138
    16.1800       124
    16.2000       150
    16.2200       156
    16.2400       138
    16.2600       170
    16.2800       144
    16.3000       144
    16.3200       150
    16.3400       126
    16.3600       118
    16.3800       112
    16.4000       122
    16.4200       116
    16.4400       132
    16.4600       146
    16.4800       168
    16.5000       268
    16.5200       364
    16.5400       440
    16.5600       636
    16.5800       902
    16.6000      1120
    16.6200      1182
    16.6400      1044
    16.6600       824
    16.6800       602
    16.7000       392
    16.7200       268
    16.7400       144
    16.7600       136
    16.7800        98
    16.8000       106
    16.8200       114
    16.8400        90
    16.8600       112
    16.8800       114
    16.9000        98
    16.9200        90
    16.9400        90
    16.9600        74
    16.9800        68
    17.0000        70
    17.0200        72
    17.0400        72
    17.0600        74
    17.0800        66
    17.1000        76
    17.1200        90
    17.1400        70
    17.1600        80
    17.1800        72
    17.2000        84
    17.2200        78
    17.2400        80
    17.2600       102
    17.2800        72
    17.3000        76
    17.3200        82
    17.3400        88
    17.3600        56
    17.3800        84
    17.4000        80
    17.4200        84
    17.4400        72
    17.4600        70
    17.4800        82
    17.5000        78
    17.5200        66
    17.5400        66
    17.5600        76
    17.5800        80
    17.6000        84
    17.6200       100
    17.6400        84
    17.6600        86
    17.6800       108
    17.7000        72
    17.7200        80
    17.7400        68
    17.7600        88
    17.7800        98
    17.8000       106
    17.8200       110
    17.8400       146
    17.8600       172
    17.8800       214
    17.9000       166
    17.9200       152
    17.9400       164
    17.9600       160
    17.9800       142
    18.0000       178
    18.0200       180
    18.0400       180
    18.0600       178
    18.0800       168
    18.1000       126
    18.1200       116
    18.1400       120
    18.1600       110
    18.1800       102
    18.2000       108
    18.2200       102
    18.2400       106
    18.2600       126
    18.2800       116
    18.3000       136
    18.3200       124
    18.3400       140
    18.3600       132
    18.3800       158
    18.4000       170
    18.4200       164
    18.4400       192
    18.4600       214
    18.4800       246
    18.5000       258
    18.5200       318
    18.5400       412
    18.5600       448
    18.5800       568
    18.6000       802
    18.6200      1022
    18.6400       992
    18.6600      1124
    18.6800      1266
    18.7000      1346
    18.7200      1608
    18.7400      1638
    18.7600      1282
    18.7800      1036
    18.8000       704
    18.8200       452
    18.8400       288
    18.8600       208
    18.8800       144
    18.9000       158
    18.9200       138
    18.9400       146
    18.9600       158
    18.9800       140
    19.0000       156
    19.0200       162
    19.0400       164
    19.0600       188
    19.0800       184
    19.1000       202
    19.1200       168
    19.1400       192
    19.1600       212
    19.1800       244
    19.2000       226
    19.2200       260
    19.2400       304
    19.2600       340
    19.2800       392
    19.3000       370
    19.3200       374
    19.3400       378
    19.3600       424
    19.3800       506
    19.4000       588
    19.4200       670
    19.4400       702
    19.4600       770
    19.4800       802
    19.5000       832
    19.5200       844
    19.5400       858
    19.5600       658
    19.5800       534
    19.6000       392
    19.6200       266
    19.6400       208
    19.6600       190
    19.6800       154
    19.7000       164
    19.7200       150
    19.7400       144
    19.7600       128
    19.7800       128
    19.8000       140
    19.8200       126
    19.8400       118
    19.8600       112
    19.8800       116
    19.9000       124
    19.9200       132
    19.9400       140
    19.9600       100
    19.9800       142
    20.0000       130
    20.0200       162
    20.0400       186
    20.0600       206
    20.0800       224
    20.1000       340
    20.1200       584
    20.1400       646
    20.1600       538
    20.1800       592
    20.2000       516
    20.2200       500
    20.2400       478
    20.2600       664
    20.2800       694
    20.3000       520
    20.3200       476
    20.3400       376
    20.3600       266
    20.3800       210
    20.4000       184
    20.4200       146
    20.4400       140
    20.4600       134
    20.4800       152
    20.5000       178
    20.5200       188
    20.5400       242
    20.5600       266
    20.5800       298
    20.6000       360
    20.6200       428
    20.6400       494
    20.6600       638
    20.6800       706
    20.7000       888
    20.7200      1140
    20.7400      1470
    20.7600      1380
    20.7800      1156
    20.8000       896
    20.8200       650
    20.8400       362
    20.8600       240
    20.8800       172
    20.9000       122
    20.9200       126
    20.9400       114
    20.9600        84
    20.9800        84
    21.0000       110
    21.0200       102
    21.0400       106
    21.0600       122
    21.0800       120
    21.1000        86
    21.1200       124
    21.1400       102
    21.1600        88
    21.1800        90
    21.2000        88
    21.2200        92
    21.2400        96
    21.2600        82
    21.2800       104
    21.3000        88
    21.3200        88
    21.3400       102
    21.3600        92
    21.3800        86
    21.4000        82
    21.4200        88
    21.4400        74
    21.4600        96
    21.4800       100
    21.5000        76
    21.5200        78
    21.5400        90
    21.5600       104
    21.5800       106
    21.6000       100
    21.6200        96
    21.6400       120
    21.6600       454
    21.6800       112
    21.7000      3936
    21.7200     26342
    21.7400     20356
    21.7600      9244
    21.7800     13616
    21.8000      2506
    21.8200       308
    21.8400       300
    21.8600       352
    21.8800       460
    21.9000       490
    21.9200       578
    21.9400       682
    21.9600       628
    21.9800       496
    22.0000       466
    22.0200       344
    22.0400       242
    22.0600       190
    22.0800      1142
    22.1000       242
    22.1200       116
    22.1400       102
    22.1600       100
    22.1800       130
    22.2000       124
    22.2200       112
    22.2400       126
    22.2600       150
    22.2800       128
    22.3000       144
    22.3200       178
    22.3400       248
    22.3600       240
    22.3800       234
    22.4000       242
    22.4200       260
    22.4400       260
    22.4600       220
    22.4800       150
    22.5000       164
    22.5200       128
    22.5400       124
    22.5600       100
    22.5800        86
    22.6000       102
    22.6200        86
    22.6400       104
    22.6600       100
    22.6800        92
    22.7000        76
    22.7200        80
    22.7400        88
    22.7600        88
    22.7800        62
    22.8000        66
    22.8200        82
    22.8400        90
    22.8600        92
    22.8800        92
    22.9000       112
    22.9200        96
    22.9400       100
    22.9600       106
    22.9800       118
    23.0000        96
    23.0200        96
    23.0400       100
    23.0600       104
    23.0800        88
    23.1000        98
    23.1200       100
    23.1400       108
    23.1600       104
    23.1800       126
    23.2000       124
    23.2200       156
    23.2400       128
    23.2600       154
    23.2800       220
    23.3000       254
    23.3200       240
    23.3400       262
    23.3600       290
    23.3800       274
    23.4000       308
    23.4200       278
    23.4400       294
    23.4600       310
    23.4800       254
    23.5000       242
    23.5200       216
    23.5400       178
    23.5600       152
    23.5800       108
    23.6000       114
    23.6200       120
    23.6400       118
    23.6600        88
    23.6800       100
    23.7000       110
    23.7200       120
    23.7400        96
    23.7600       100
    23.7800       108
    23.8000       108
    23.8200       134
    23.8400       134
    23.8600       126
    23.8800       136
    23.9000       156
    23.9200       178
    23.9400       262
    23.9600       252
    23.9800       272
    24.0000       234
    24.0200       216
    24.0400       212
    24.0600       196
    24.0800       150
    24.1000       124
    24.1200       136
    24.1400       136
    24.1600       104
    24.1800       126
    24.2000       118
    24.2200       128
    24.2400       134
    24.2600       160
    24.2800       158
    24.3000       146
    24.3200       186
    24.3400       208
    24.3600       210
    24.3800       220
    24.4000       272
    24.4200       326
    24.4400       412
    24.4600       484
    24.4800       520
    24.5000       688
    24.5200       834
    24.5400      1032
    24.5600      1170
    24.5800      1262
    24.6000      1550
    24.6200      1758
    24.6400      1966
    24.6600      1754
    24.6800      1714
    24.7000      1642
    24.7200      1302
    24.7400      1028
    24.7600       904
    24.7800       702
    24.8000       590
    24.8200       520
    24.8400       520
    24.8600       546
    24.8800       562
    24.9000       572
    24.9200       670
    24.9400       818
    24.9600      1100
    24.9800      1584
    25.0000      1878
    25.0200      3000
    25.0400      4558
    25.0600      6922
    25.0800      8362
    25.1000      8006
    25.1200      6828
    25.1400      5652
    25.1600      4150
    25.1800      2702
    25.2000      1454
    25.2200       776
    25.2400       530
    25.2600       322
    25.2800       240
    25.3000       224
    25.3200       242
    25.3400       176
    25.3600       176
    25.3800       172
    25.4000       144
    25.4200       152
    25.4400       144
    25.4600       134
    25.4800       116
    25.5000       176
    25.5200       176
    25.5400       168
    25.5600       166
    25.5800       166
    25.6000       142
    25.6200       134
    25.6400       138
    25.6600       130
    25.6800       140
    25.7000       154
    25.7200       144
    25.7400       194
    25.7600       182
    25.7800       180
    25.8000       198
    25.8200       198
    25.8400       166
    25.8600       142
    25.8800       156
    25.9000       122
    25.9200       120
    25.9400        98
    25.9600        98
    25.9800        78
    26.0000       110
    26.0200       106
    26.0400       116
    26.0600       100
    26.0800       104
    26.1000       114
    26.1200       112
    26.1400       108
    26.1600       116
    26.1800       140
    26.2000       124
    26.2200       148
    26.2400       184
    26.2600       192
    26.2800       266
    26.3000       370
    26.3200       534
    26.3400       526
    26.3600       432
    26.3800       416
    26.4000       486
    26.4200       444
    26.4400       300
    26.4600       294
    26.4800       192
    26.5000       214
    26.5200       162
    26.5400       114
    26.5600       116
    26.5800       116
    26.6000       120
    26.6200       116
    26.6400       130
    26.6600        84
    26.6800       108
    26.7000        94
    26.7200        94
    26.7400       100
    26.7600        90
    26.7800        80
    26.8000        84
    26.8200        84
    26.8400        80
    26.8600        94
    26.8800        76
    26.9000        96
    26.9200       112
    26.9400       108
    26.9600       112
    26.9800       140
    27.0000       132
    27.0200       146
    27.0400       186
    27.0600       210
    27.0800       186
    27.1000       196
    27.1200       194
    27.1400       250
    27.1600       272
    27.1800       260
    27.2000       220
    27.2200       224
    27.2400       220
    27.2600       214
    27.2800       240
    27.3000       206
    27.3200       192
    27.3400       182
    27.3600       160
    27.3800       180
    27.4000       154
    27.4200       152
    27.4400       142
    27.4600       152
    27.4800       148
    27.5000       162
    27.5200       156
    27.5400       146
    27.5600       162
    27.5800       190
    27.6000       152
    27.6200       160
    27.6400       102
    27.6600       126
    27.6800       102
    27.7000        94
    27.7200        70
    27.7400        68
    27.7600        84
    27.7800        72
    27.8000        82
    27.8200        90
    27.8400        70
    27.8600        80
    27.8800        70
    27.9000        68
    27.9200        58
    27.9400        90
    27.9600        74
    27.9800        86
    28.0000        56
    28.0200        78
    28.0400        56
    28.0600        88
    28.0800        90
    28.1000        84
    28.1200        74
    28.1400        70
    28.1600        74
    28.1800        80
    28.2000        72
    28.2200        90
    28.2400        76
    28.2600        90
    28.2800        84
    28.3000        84
    28.3200        90
    28.3400        84
    28.3600        98
    28.3800       106
    28.4000       122
    28.4200       156
    28.4400       146
    28.4600       162
    28.4800       204
    28.5000       212
    28.5200       260
    28.5400       264
    28.5600       210
    28.5800       232
    28.6000       176
    28.6200       132
    28.6400       110
    28.6600        90
    28.6800        80
    28.7000        80
    28.7200        76
    28.7400        86
    28.7600       102
    28.7800        56
    28.8000        78
    28.8200        86
    28.8400        66
    28.8600        84
    28.8800        64
    28.9000        60
    28.9200        72
    28.9400        64
    28.9600        74
    28.9800        60
    29.0000        64
    29.0200        72
    29.0400        64
    29.0600        78
    29.0800        68
    29.1000        74
    29.1200        72
    29.1400        64
    29.1600        84
    29.1800        80
    29.2000        66
    29.2200        88
    29.2400        80
    29.2600        74
    29.2800        64
    29.3000        70
    29.3200        80
    29.3400        78
    29.3600        66
    29.3800        70
    29.4000        66
    29.4200        70
    29.4400        90
    29.4600        66
    29.4800        72
    29.5000        82
    29.5200        78
    29.5400        84
    29.5600        62
    29.5800        88
    29.6000        66
    29.6200        66
    29.6400        70
    29.6600        78
    29.6800        62
    29.7000        58
    29.7200        64
    29.7400        74
    29.7600        64
    29.7800        66
    29.8000        58
    29.8200        78
    29.8400        78
    29.8600        66
    29.8800        46
    29.9000        70
    29.9200        74
    29.9400        78
    29.9600        72
    29.9800        64
    30.0000        66
    30.0200        68
    30.0400        82
    30.0600        80
    30.0800        94
    30.1000        82
    30.1200        92
    30.1400        88
    30.1600        80
    30.1800       106
    30.2000        94
    30.2200       102
    30.2400       104
    30.2600       118
    30.2800       106
    30.3000       120
    30.3200       150
    30.3400       158
    30.3600       144
    30.3800       146
    30.4000       194
    30.4200       190
    30.4400       170
    30.4600       180
    30.4800       140
    30.5000       158
    30.5200       148
    30.5400       148
    30.5600       110
    30.5800       122
    30.6000       124
    30.6200       142
    30.6400       130
    30.6600       144
    30.6800       174
    30.7000       164
    30.7200       186
    30.7400       230
    30.7600       298
    30.7800       322
    30.8000       358
    30.8200       400
    30.8400       480
    30.8600       666
    30.8800       658
    30.9000       698
    30.9200       612
    30.9400       552
    30.9600       488
    30.9800       400
    31.0000       330
    31.0200       222
    31.0400       186
    31.0600       164
    31.0800       154
    31.1000       160
    31.1200       150
    31.1400       208
    31.1600       272
    31.1800       346
    31.2000       388
    31.2200       296
    31.2400       242
    31.2600       232
    31.2800       212
    31.3000       184
    31.3200       132
    31.3400       120
    31.3600       114
    31.3800       130
    31.4000       108
    31.4200       130
    31.4400       108
    31.4600       132
    31.4800       118
    31.5000       134
    31.5200       136
    31.5400       128
    31.5600       122
    31.5800       144
    31.6000       144
    31.6200       168
    31.6400       186
    31.6600       226
    31.6800       264
    31.7000       278
    31.7200       320
    31.7400       400
    31.7600       462
    31.7800       522
    31.8000       562
    31.8200       510
    31.8400       486
    31.8600       506
    31.8800       432
    31.9000       396
    31.9200       326
    31.9400       294
    31.9600       232
    31.9800       182
    32.0000       172
    32.0200       160
    32.0400       174
    32.0600       170
    32.0800       138
    32.1000       156
    32.1200       172
    32.1400       136
    32.1600       126
    32.1800       156
    32.2000       112
    32.2200       116
    32.2400        98
    32.2600       102
    32.2800       112
    32.3000       114
    32.3200       100
    32.3400       116
    32.3600       112
    32.3800       136
    32.4000       148
    32.4200       168
    32.4400       222
    32.4600       214
    32.4800       250
    32.5000       262
    32.5200       226
    32.5400       206
    32.5600       204
    32.5800       222
    32.6000       178
    32.6200       146
    32.6400       136
    32.6600       106
    32.6800       100
    32.7000       114
    32.7200       112
    32.7400        98
    32.7600       114
    32.7800       104
    32.8000       122
    32.8200       108
    32.8400       150
    32.8600       138
    32.8800       122
    32.9000       158
    32.9200       154
    32.9400       110
    32.9600       124
    32.9800       114
    33.0000       104
    33.0200       102
    33.0400        90
    33.0600        92
    33.0800       110
    33.1000       102
    33.1200       142
    33.1400       162
    33.1600       190
    33.1800       204
    33.2000       176
    33.2200       170
    33.2400       188
    33.2600       210
    33.2800       230
    33.3000       232
    33.3200       310
    33.3400       406
    33.3600       386
    33.3800       286
    33.4000       240
    33.4200       258
    33.4400       242
    33.4600       268
    33.4800       216
    33.5000       194
    33.5200       172
    33.5400       166
    33.5600       162
    33.5800       152
    33.6000       132
    33.6200       154
    33.6400       156
    33.6600       178
    33.6800       192
    33.7000       156
    33.7200       180
    33.7400       156
    33.7600       144
    33.7800       126
    33.8000       136
    33.8200        92
    33.8400        88
    33.8600        90
    33.8800        94
    33.9000        74
    33.9200        86
    33.9400        82
    33.9600        82
    33.9800        78
    34.0000        82
    34.0200       100
    34.0400        84
    34.0600        94
    34.0800        96
    34.1000       104
    34.1200       112
    34.1400       120
    34.1600       118
    34.1800        98
    34.2000       120
    34.2200       112
    34.2400       130
    34.2600       144
    34.2800       148
    34.3000       150
    34.3200       174
    34.3400       182
    34.3600       192
    34.3800       188
    34.4000       214
    34.4200       198
    34.4400       222
    34.4600       216
    34.4800       224
    34.5000       258
    34.5200       232
    34.5400       212
    34.5600       218
    34.5800       202
    34.6000       218
    34.6200       198
    34.6400       218
    34.6600       222
    34.6800       192
    34.7000       184
    34.7200       200
    34.7400       178
    34.7600       162
    34.7800       168
    34.8000       156
    34.8200       152
    34.8400       152
    34.8600       154
    34.8800       176
    34.9000       148
    34.9200       192
    34.9400       176
    34.9600       168
    34.9800       198
    35.0000       224
    35.0200       222
    35.0400       244
    35.0600       296
    35.0800       236
    35.1000       230
    35.1200       248
    35.1400       244
    35.1600       218
    35.1800       202
    35.2000       156
    35.2200       176
    35.2400       182
    35.2600       142
    35.2800       138
    35.3000       166
    35.3200       154
    35.3400       168
    35.3600       166
    35.3800       204
    35.4000       188
    35.4200       214
    35.4400       200
    35.4600       174
    35.4800       166
    35.5000       142
    35.5200       138
    35.5400       118
    35.5600       114
    35.5800       122
    35.6000       116
    35.6200       134
    35.6400       116
    35.6600       138
    35.6800       164
    35.7000       144
    35.7200       150
    35.7400       144
    35.7600       124
    35.7800       136
    35.8000       112
    35.8200       120
    35.8400       128
    35.8600       140
    35.8800       174
    35.9000       178
    35.9200       156
    35.9400       198
    35.9600       210
    35.9800       234
    36.0000       214
    36.0200       256
    36.0400       258
    36.0600       284
    36.0800       278
    36.1000       302
    36.1200       270
    36.1400       264
    36.1600       216
    36.1800       200
    36.2000       162
    36.2200       160
    36.2400       120
    36.2600       144
    36.2800       106
    36.3000       100
    36.3200        94
    36.3400       112
    36.3600       114
    36.3800       152
    36.4000       174
    36.4200       176
    36.4400       170
    36.4600       186
    36.4800       190
    36.5000       182
    36.5200       246
    36.5400       246
    36.5600       258
    36.5800       346
    36.6000       332
    36.6200       410
    36.6400       354
    36.6600       376
    36.6800       334
    36.7000       294
    36.7200       288
    36.7400       250
    36.7600       218
    36.7800       192
    36.8000       172
    36.8200       214
    36.8400       162
    36.8600       184
    36.8800       182
    36.9000       190
    36.9200       178
    36.9400       144
    36.9600       190
    36.9800       124
    37.0000       160
    37.0200       148
    37.0400       146
    37.0600       154
    37.0800       152
    37.1000       148
    37.1200       192
    37.1400       208
    37.1600       234
    37.1800       228
    37.2000       232
    37.2200       242
    37.2400       262
    37.2600       234
    37.2800       210
    37.3000       184
    37.3200       186
    37.3400       160
    37.3600       158
    37.3800       162
    37.4000       118
    37.4200       132
    37.4400       142
    37.4600       138
    37.4800       152
    37.5000       144
    37.5200       140
    37.5400       158
    37.5600       124
    37.5800       114
    37.6000       144
    37.6200       120
    37.6400       130
    37.6600       126
    37.6800       120
    37.7000       114
    37.7200       110
    37.7400       114
    37.7600       120
    37.7800       118
    37.8000       114
    37.8200       104
    37.8400       128
    37.8600       124
    37.8800       134
    37.9000       130
    37.9200       154
    37.9400       118
    37.9600       162
    37.9800       186
    38.0000       206
    38.0200       228
    38.0400       222
    38.0600       238
    38.0800       276
    38.1000       274
    38.1200       304
    38.1400       346
    38.1600       338
    38.1800       322
    38.2000       340
    38.2200       364
    38.2400       474
    38.2600       444
    38.2800       500
    38.3000       462
    38.3200       526
    38.3400       610
    38.3600       682
    38.3800       688
    38.4000       648
    38.4200       498
    38.4400       404
    38.4600       320
    38.4800       330
    38.5000       292
    38.5200       226
    38.5400       156
    38.5600       134
    38.5800       114
    38.6000       116
    38.6200       124
    38.6400       122
    38.6600       138
    38.6800       124
    38.7000       150
    38.7200       154
    38.7400       146
    38.7600       132
    38.7800       172
    38.8000       158
    38.8200       184
    38.8400       184
    38.8600       162
    38.8800       168
    38.9000       192
    38.9200       192
    38.9400       218
    38.9600       248
    38.9800       226
    39.0000       202
    39.0200       166
    39.0400       170
    39.0600       170
    39.0800       154
    39.1000       140
    39.1200       158
    39.1400       126
    39.1600       146
    39.1800       124
    39.2000       104
    39.2200       128
    39.2400       116
    39.2600       108
    39.2800       102
    39.3000        90
    39.3200        90
    39.3400        94
    39.3600        90
    39.3800       100
    39.4000       120
    39.4200        82
    39.4400        98
    39.4600       122
    39.4800       120
    39.5000       118
    39.5200       168
    39.5400       200
    39.5600       210
    39.5800       226
    39.6000       226
    39.6200       254
    39.6400       298
    39.6600       358
    39.6800       434
    39.7000       400
    39.7200       400
    39.7400       392
    39.7600       420
    39.7800       390
    39.8000       400
    39.8200       372
    39.8400       364
    39.8600       314
    39.8800       296
    39.9000       230
    39.9200       222
    39.9400       212
    39.9600       194
    39.9800       186
    40.0000       208
    40.0200       184
    40.0400       198
    40.0600       178
    40.0800       194
    40.1000       204
    40.1200       204
    40.1400       222
    40.1600       212
    40.1800       220
    40.2000       254
    40.2200       202
    40.2400       234
    40.2600       240
    40.2800       200
    40.3000       166
    40.3200       218
    40.3400       192
    40.3600       178
    40.3800       168
    40.4000       154
    40.4200       142
    40.4400       180
    40.4600       208
    40.4800       194
    40.5000       162
    40.5200       118
    40.5400       112
    40.5600       120
    40.5800       114
    40.6000       100
    40.6200       110
    40.6400        88
    40.6600        76
    40.6800        86
    40.7000        78
    40.7200        76
    40.7400        72
    40.7600        68
    40.7800        86
    40.8000        86
    40.8200        78
    40.8400        74
    40.8600        88
    40.8800        90
    40.9000       106
    40.9200        98
    40.9400        88
    40.9600        92
    40.9800       104
    41.0000       112
    41.0200       120
    41.0400       136
    41.0600       162
    41.0800       154
    41.1000       140
    41.1200       162
    41.1400       128
    41.1600       152
    41.1800       150
    41.2000       144
    41.2200       126
    41.2400       158
    41.2600       148
    41.2800       148
    41.3000       144
    41.3200       150
    41.3400       150
    41.3600       150
    41.3800       202
    41.4000       200
    41.4200       220
    41.4400       190
    41.4600       206
    41.4800       166
    41.5000       150
    41.5200       136
    41.5400       160
    41.5600       136
    41.5800       118
    41.6000        98
    41.6200        70
    41.6400        78
    41.6600        84
    41.6800        80
    41.7000        62
    41.7200        58
    41.7400        72
    41.7600        72
    41.7800        62
    41.8000        80
    41.8200        68
    41.8400        68
    41.8600        74
    41.8800        64
    41.9000        76
    41.9200        72
    41.9400        78
    41.9600        80
    41.9800        94
    42.0000        70
    42.0200        72
    42.0400        74
    42.0600        76
    42.0800        74
    42.1000        60
    42.1200        84
    42.1400        68
    42.1600        62
    42.1800        80
    42.2000        54
    42.2200        80
    42.2400        74
    42.2600        82
    42.2800        76
    42.3000        74
    42.3200        66
    42.3400        82
    42.3600        78
    42.3800        76
    42.4000        80
    42.4200        86
    42.4400        86
    42.4600       104
    42.4800        98
    42.5000       102
    42.5200       108
    42.5400       124
    42.5600        98
    42.5800       104
    42.6000        80
    42.6200       108
    42.6400        96
    42.6600        86
    42.6800        94
    42.7000        60
    42.7200        98
    42.7400        88
    42.7600        90
    42.7800        80
    42.8000        78
    42.8200        74
    42.8400        62
    42.8600        86
    42.8800        86
    42.9000        96
    42.9200       116
    42.9400       102
    42.9600        84
    42.9800        88
    43.0000       102
    43.0200       106
    43.0400       102
    43.0600       100
    43.0800        78
    43.1000       100
    43.1200        98
    43.1400       112
    43.1600       110
    43.1800       144
    43.2000       110
    43.2200       120
    43.2400       170
    43.2600       184
    43.2800       190
    43.3000       162
    43.3200       156
    43.3400       180
    43.3600       194
    43.3800       186
    43.4000       238
    43.4200       220
    43.4400       212
    43.4600       210
    43.4800       190
    43.5000       186
    43.5200       192
    43.5400       184
    43.5600       200
    43.5800       160
    43.6000       164
    43.6200       148
    43.6400       120
    43.6600       150
    43.6800       178
    43.7000       162
    43.7200       148
    43.7400       178
    43.7600       186
    43.7800       188
    43.8000       180
    43.8200       174
    43.8400       142
    43.8600       130
    43.8800       136
    43.9000       118
    43.9200       124
    43.9400        84
    43.9600        94
    43.9800        96
    44.0000        70
    44.0200        82
    44.0400       100
    44.0600        80
    44.0800        78
    44.1000        88
    44.1200        80
    44.1400       104
    44.1600        78
    44.1800        92
    44.2000        94
    44.2200        70
    44.2400        86
    44.2600        86
    44.2800        90
    44.3000        94
    44.3200        90
    44.3400        88
    44.3600        80
    44.3800        98
    44.4000        88
    44.4200        98
    44.4400        84
    44.4600        80
    44.4800       122
    44.5000        86
    44.5200       102
    44.5400        80
    44.5600       118
    44.5800        92
    44.6000       100
    44.6200        98
    44.6400       102
    44.6600        82
    44.6800        98
    44.7000        92
    44.7200        86
    44.7400       116
    44.7600       108
    44.7800       108
    44.8000       118
    44.8200       104
    44.8400       120
    44.8600       130
    44.8800       150
    44.9000       132
    44.9200       138
    44.9400       130
    44.9600       148
    44.9800       166
    45.0000       150
    45.0200       132
    45.0400       142
    45.0600       156
    45.0800       128
    45.1000       148
    45.1200       142
    45.1400       124
    45.1600       172
    45.1800       138
    45.2000       140
    45.2200       114
    45.2400       122
    45.2600       112
    45.2800       114
    45.3000       102
    45.3200        96
    45.3400       114
    45.3600       112
    45.3800       108
    45.4000        84
    45.4200        84
    45.4400        88
    45.4600        98
    45.4800        90
    45.5000        80
    45.5200        82
    45.5400        72
    45.5600        68
    45.5800        82
    45.6000        72
    45.6200        76
    45.6400        78
    45.6600        76
    45.6800        70
    45.7000        82
    45.7200        72
    45.7400        80
    45.7600        80
    45.7800        78
    45.8000        94
    45.8200        62
    45.8400        86
    45.8600        80
    45.8800        84
    45.9000        94
    45.9200        78
    45.9400        88
    45.9600        78
    45.9800        88
    46.0000        60
    46.0200        58
    46.0400        60
    46.0600        72
    46.0800        82
    46.1000        64
    46.1200        80
    46.1400       100
    46.1600        92
    46.1800       104
    46.2000       112
    46.2200       102
    46.2400       122
    46.2600       126
    46.2800       136
    46.3000       146
    46.3200       116
    46.3400       126
    46.3600        98
    46.3800        90
    46.4000        96
    46.4200       108
    46.4400        78
    46.4600       102
    46.4800        80
    46.5000       102
    46.5200        98
    46.5400       140
    46.5600       144
    46.5800       168
    46.6000       190
    46.6200       188
    46.6400       182
    46.6600       160
    46.6800       144
    46.7000       152
    46.7200       180
    46.7400       160
    46.7600       138
    46.7800       146
    46.8000       164
    46.8200       144
    46.8400       144
    46.8600       142
    46.8800       176
    46.9000       168
    46.9200       190
    46.9400       238
    46.9600       224
    46.9800       200
    47.0000       144
    47.0200       166
    47.0400       178
    47.0600       182
    47.0800       184
    47.1000       206
    47.1200       196
    47.1400       188
    47.1600       184
    47.1800       156
    47.2000       132
    47.2200       100
    47.2400       110
    47.2600       116
    47.2800       112
    47.3000       114
    47.3200       106
    47.3400        98
    47.3600        84
    47.3800        94
    47.4000        80
    47.4200       104
    47.4400       106
    47.4600       116
    47.4800       126
    47.5000       142
    47.5200       146
    47.5400       136
    47.5600       188
    47.5800       214
    47.6000       180
    47.6200       166
    47.6400       132
    47.6600       150
    47.6800       144
    47.7000       128
    47.7200       124
    47.7400       152
    47.7600       134
    47.7800       128
    47.8000       144
    47.8200       142
    47.8400       126
    47.8600       140
    47.8800       122
    47.9000       164
    47.9200       142
    47.9400       128
    47.9600       142
    47.9800       142
    48.0000       150
    48.0200       154
    48.0400       172
    48.0600       148
    48.0800       200
    48.1000       162
    48.1200       164
    48.1400       152
    48.1600       118
    48.1800       142
    48.2000       112
    48.2200       110
    48.2400       124
    48.2600       116
    48.2800       136
    48.3000       114
    48.3200       108
    48.3400       124
    48.3600       138
    48.3800        98
    48.4000       118
    48.4200       122
    48.4400       114
    48.4600       136
    48.4800       116
    48.5000       150
    48.5200       134
    48.5400       150
    48.5600       140
    48.5800       134
    48.6000       126
    48.6200       116
    48.6400       104
    48.6600        94
    48.6800       118
    48.7000        92
    48.7200       100
    48.7400        82
    48.7600        90
    48.7800        98
    48.8000        96
    48.8200       104
    48.8400        98
    48.8600        90
    48.8800        88
    48.9000       118
    48.9200       106
    48.9400        90
    48.9600       118
    48.9800        86
    49.0000       118
    49.0200       130
    49.0400       128
    49.0600       136
    49.0800       154
    49.1000       132
    49.1200       128
    49.1400       142
    49.1600       144
    49.1800       152
    49.2000       136
    49.2200       120
    49.2400       120
    49.2600       104
    49.2800        86
    49.3000        96
    49.3200        90
    49.3400        86
    49.3600        86
    49.3800        66
    49.4000        72
    49.4200        78
    49.4400        56
    49.4600        70
    49.4800        72
    49.5000        66
    49.5200        52
    49.5400        74
    49.5600        78
    49.5800        58
    49.6000        72
    49.6200        64
    49.6400        82
    49.6600        72
    49.6800        82
    49.7000        88
    49.7200        66
    49.7400       108
    49.7600        92
    49.7800       108
    49.8000       120
    49.8200        90
    49.8400       124
    49.8600       126
    49.8800       130
    49.9000       102
    49.9200       108
    49.9400       100
    49.9600        98
    49.9800       100
    50.0000       104
    50.0200       108
    50.0400        94
    50.0600        86
    50.0800        88
    50.1000        82
    50.1200        80
    50.1400        82
    50.1600        86
    50.1800        86
    50.2000       100
    50.2200       120
    50.2400       118
    50.2600       130
    50.2800       152
    50.3000       128
    50.3200       136
    50.3400       122
    50.3600       138
    50.3800       114
    50.4000       124
    50.4200       116
    50.4400       124
    50.4600       104
    50.4800        96
    50.5000       106
    50.5200        94
    50.5400       116
    50.5600       102
    50.5800       136
    50.6000       114
    50.6200       130
    50.6400       146
    50.6600       126
    50.6800       138
    50.7000       168
    50.7200       132
    50.7400       116
    50.7600       142
    50.7800       172
    50.8000       162
    50.8200       138
    50.8400       118
    50.8600        96
    50.8800        86
    50.9000        92
    50.9200        96
    50.9400        98
    50.9600        98
    50.9800        70
    51.0000        66
    51.0200        56
    51.0400        54
    51.0600        74
    51.0800        46
    51.1000        60
    51.1200        62
    51.1400        78
    51.1600        56
    51.1800        78
    51.2000        92
    51.2200        92
    51.2400        92
    51.2600        88
    51.2800        90
    51.3000        88
    51.3200        62
    51.3400        90
    51.3600        86
    51.3800        66
    51.4000        88
    51.4200        90
    51.4400        60
    51.4600        68
    51.4800        64
    51.5000        64
    51.5200        94
    51.5400        98
    51.5600       136
    51.5800       172
    51.6000       180
    51.6200       176
    51.6400       156
    51.6600       180
    51.6800       136
    51.7000       118
    51.7200       136
    51.7400       130
    51.7600       124
    51.7800       132
    51.8000       104
    51.8200       118
    51.8400       100
    51.8600       100
    51.8800       108
    51.9000        96
    51.9200        88
    51.9400        98
    51.9600       110
    51.9800       120
    52.0000       128
    52.0200       146
    52.0400       108
    52.0600       100
    52.0800        96
    52.1000        78
    52.1200        80
    52.1400       106
    52.1600       102
    52.1800        92
    52.2000        88
    52.2200        92
    52.2400        80
    52.2600        70
    52.2800        76
    52.3000        72
    52.3200        84
    52.3400        64
    52.3600        62
    52.3800        58
    52.4000        68
    52.4200        68
    52.4400        78
    52.4600        76
    52.4800        74
    52.5000        70
    52.5200        80
    52.5400        80
    52.5600        78
    52.5800        84
    52.6000        88
    52.6200       108
    52.6400        92
    52.6600       102
    52.6800       102
    52.7000       108
    52.7200        84
    52.7400       100
    52.7600       100
    52.7800        76
    52.8000        82
    52.8200        92
    52.8400        72
    52.8600        52
    52.8800        76
    52.9000        60
    52.9200        72
    52.9400        74
    52.9600        74
    52.9800        82
    53.0000        76
    53.0200        72
    53.0400        80
    53.0600       106
    53.0800        92
    53.1000        90
    53.1200        98
    53.1400        96
    53.1600        88
    53.1800        80
    53.2000       110
    53.2200        88
    53.2400        92
    53.2600        92
    53.2800        82
    53.3000        94
    53.3200        96
    53.3400        80
    53.3600        82
    53.3800        76
    53.4000        68
    53.4200        88
    53.4400        78
    53.4600        70
    53.4800        86
    53.5000        96
    53.5200        80
    53.5400        94
    53.5600        82
    53.5800        96
    53.6000       104
    53.6200        90
    53.6400        92
    53.6600        92
    53.6800        98
    53.7000       110
    53.7200       110
    53.7400       140
    53.7600       114
    53.7800       122
    53.8000       124
    53.8200       146
    53.8400       140
    53.8600       170
    53.8800       184
    53.9000       216
    53.9200       220
    53.9400       176
    53.9600       196
    53.9800       180
    54.0000       174
    54.0200       176
    54.0400       172
    54.0600       180
    54.0800       172
    54.1000       150
    54.1200       114
    54.1400       112
    54.1600        96
    54.1800        94
    54.2000        78
    54.2200       108
    54.2400        76
    54.2600        84
    54.2800        72
    54.3000        74
    54.3200        76
    54.3400        72
    54.3600        62
    54.3800        80
    54.4000        60
    54.4200        82
    54.4400        80
    54.4600        70
    54.4800        60
    54.5000        66
    54.5200       102
    54.5400        84
    54.5600        68
    54.5800        80
    54.6000        98
    54.6200        82
    54.6400        88
    54.6600       108
    54.6800        88
    54.7000       112
    54.7200       106
    54.7400        88
    54.7600        96
    54.7800       104
    54.8000        88
    54.8200        84
    54.8400        98
    54.8600        78
    54.8800       110
    54.9000        86
    54.9200        92
    54.9400        80
    54.9600       108
    54.9800       106
    55.0000       112
    55.0200        92
    55.0400        92
    55.0600        88
    55.0800        78
    55.1000       106
    55.1200        98
    55.1400       104
    55.1600        96
    55.1800       102
    55.2000        92
    55.2200       106
    55.2400       120
    55.2600       102
    55.2800        86
    55.3000        88
    55.3200        84
    55.3400        82
    55.3600        90
    55.3800        96
    55.4000        88
    55.4200        82
    55.4400        82
    55.4600        84
    55.4800        92
    55.5000       108
    55.5200        90
    55.5400        78
    55.5600        72
    55.5800       100
    55.6000        64
    55.6200        68
    55.6400        74
    55.6600        76
    55.6800        82
    55.7000        72
    55.7200        84
    55.7400        78
    55.7600        72
    55.7800        72
    55.8000        90
    55.8200        74
    55.8400        76
    55.8600       100
    55.8800        90
    55.9000        88
    55.9200        74
    55.9400        90
    55.9600        82
    55.9800        86
    56.0000       104
    56.0200       100
    56.0400       124
    56.0600       112
    56.0800        80
    56.1000        96
    56.1200        78
    56.1400        64
    56.1600        72
    56.1800        64
    56.2000        80
    56.2200        72
    56.2400        70
    56.2600        90
    56.2800        74
    56.3000        78
    56.3200        66
    56.3400        60
    56.3600        88
    56.3800        74
    56.4000        88
    56.4200        68
    56.4400        66
    56.4600        78
    56.4800        66
    56.5000        66
    56.5200        66
    56.5400        70
    56.5600        82
    56.5800        62
    56.6000        74
    56.6200        88
    56.6400        76
    56.6600        76
    56.6800        62
    56.7000        68
    56.7200        74
    56.7400        66
    56.7600        62
    56.7800        66
    56.8000        58
    56.8200        68
    56.8400        64
    56.8600        74
    56.8800        66
    56.9000        54
    56.9200        62
    56.9400        72
    56.9600        68
    56.9800        72
    57.0000        78
    57.0200        58
    57.0400        66
    57.0600        74
    57.0800        76
    57.1000        68
    57.1200        60
    57.1400        60
    57.1600        82
    57.1800        72
    57.2000        80
    57.2200        76
    57.2400        84
    57.2600        82
    57.2800        74
    57.3000       106
    57.3200        78
    57.3400        80
    57.3600        58
    57.3800        84
    57.4000        84
    57.4200       108
    57.4400       124
    57.4600       106
    57.4800        90
    57.5000        82
    57.5200        90
    57.5400        74
    57.5600       102
    57.5800        92
    57.6000        96
    57.6200        88
    57.6400        90
    57.6600        92
    57.6800        74
    57.7000        78
    57.7200        96
    57.7400        72
    57.7600        72
    57.7800        74
    57.8000        96
    57.8200        70
    57.8400        72
    57.8600        74
    57.8800        68
    57.9000        76
    57.9200        66
    57.9400        80
    57.9600        70
    57.9800        86
    58.0000        84
    58.0200        88
    58.0400        70
    58.0600        76
    58.0800        72
    58.1000        90
    58.1200        74
    58.1400        70
    58.1600        74
    58.1800        64
    58.2000        90
    58.2200        96
    58.2400        84
    58.2600        58
    58.2800        72
    58.3000        58
    58.3200        74
    58.3400        70
    58.3600        76
    58.3800        80
    58.4000        88
    58.4200        68
    58.4400        74
    58.4600        78
    58.4800        82
    58.5000        72
    58.5200        76
    58.5400        74
    58.5600        76
    58.5800        82
    58.6000        76
    58.6200        80
    58.6400       102
    58.6600        94
    58.6800        98
    58.7000        94
    58.7200       102
    58.7400        90
    58.7600        78
    58.7800        92
    58.8000        96
    58.8200       102
    58.8400       102
    58.8600       112
    58.8800        96
    58.9000       106
    58.9200       126
    58.9400       106
    58.9600       116
    58.9800       130
    59.0000       146
    59.0200       164
    59.0400       138
    59.0600       126
    59.0800       150
    59.1000       120
    59.1200       118
    59.1400       122
    59.1600       124
    59.1800       130
    59.2000       110
    59.2200       102
    59.2400       100
    59.2600       124
    59.2800       100
    59.3000        88
    59.3200        88
    59.3400        80
    59.3600        88
    59.3800        94
    59.4000        80
    59.4200       100
    59.4400        72
    59.4600        78
    59.4800       104
    59.5000        90
    59.5200       114
    59.5400       100
    59.5600       102
    59.5800       128
    59.6000       118
    59.6200       134
    59.6400       134
    59.6600       124
    59.6800       138
    59.7000       134
    59.7200       146
    59.7400       146
    59.7600       146
    59.7800       138
    59.8000       154
    59.8200       154
    59.8400       162
    59.8600       122
    59.8800       140
    59.9000       156
    59.9200       154
    59.9400       122
    59.9600       138
    59.9800       140
    60.0000       136
    60.0200       118
    60.0400       134
    60.0600        98
    60.0800       126
    60.1000        98
    60.1200       114
    60.1400       110
    60.1600       100
    60.1800        88
    60.2000        96
    60.2200       102
    60.2400        78
    60.2600        98
    60.2800        90
    60.3000        92
    60.3200       104
    60.3400        98
    60.3600       114
    60.3800       130
    60.4000       140
    60.4200       136
    60.4400       122
    60.4600       110
    60.4800        98
    60.5000        92
    60.5200        98
    60.5400       114
    60.5600       114
    60.5800       114
    60.6000        96
    60.6200       114
    60.6400        70
    60.6600        80
    60.6800        86
    60.7000        88
    60.7200        80
    60.7400        80
    60.7600        84
    60.7800        60
    60.8000        64
    60.8200        88
    60.8400        72
    60.8600        62
    60.8800        64
    60.9000        66
    60.9200        78
    60.9400        80
    60.9600        82
    60.9800        84
    61.0000        82
    61.0200        98
    61.0400        96
    61.0600        88
    61.0800        94
    61.1000        92
    61.1200        88
    61.1400        90
    61.1600        88
    61.1800        62
    61.2000        90
    61.2200        84
    61.2400        80
    61.2600        90
    61.2800        88
    61.3000        92
    61.3200        90
    61.3400        90
    61.3600       104
    61.3800       108
    61.4000       110
    61.4200        86
    61.4400       116
    61.4600        84
    61.4800        92
    61.5000        82
    61.5200        94
    61.5400       104
    61.5600        90
    61.5800       106
    61.6000        90
    61.6200       100
    61.6400        82
    61.6600        78
    61.6800        78
    61.7000        72
    61.7200        80
    61.7400        56
    61.7600        76
    61.7800        68
    61.8000        80
    61.8200        96
    61.8400        78
    61.8600        74
    61.8800        52
    61.9000        72
    61.9200        70
    61.9400        70
    61.9600        64
    61.9800        64
    62.0000        54
    62.0200        72
    62.0400        66
    62.0600        74
    62.0800        74
    62.1000        60
    62.1200        76
    62.1400        66
    62.1600        58
    62.1800        70
    62.2000        60
    62.2200        54
    62.2400        58
    62.2600        60
    62.2800        70
    62.3000        66
    62.3200        64
    62.3400        64
    62.3600        70
    62.3800        58
    62.4000        56
    62.4200        58
    62.4400        50
    62.4600        62
    62.4800        56
    62.5000        50
    62.5200        58
    62.5400        52
    62.5600        60
    62.5800        76
    62.6000        50
    62.6200        82
    62.6400        60
    62.6600        86
    62.6800        72
    62.7000       106
    62.7200        84
    62.7400        58
    62.7600        80
    62.7800        64
    62.8000        68
    62.8200        64
    62.8400        64
    62.8600        66
    62.8800        64
    62.9000        66
    62.9200        66
    62.9400        52
    62.9600        64
    62.9800        72
    63.0000        60
    63.0200        50
    63.0400        58
    63.0600        68
    63.0800        70
    63.1000        70
    63.1200        68
    63.1400        64
    63.1600        60
    63.1800        58
    63.2000        74
    63.2200        88
    63.2400        62
    63.2600        72
    63.2800        62
    63.3000        88
    63.3200        86
    63.3400        68
    63.3600        78
    63.3800       104
    63.4000       122
    63.4200       120
    63.4400       132
    63.4600       114
    63.4800       102
    63.5000        94
    63.5200        94
    63.5400        88
    63.5600        78
    63.5800        80
    63.6000        86
    63.6200       112
    63.6400       108
    63.6600        78
    63.6800        86
    63.7000        92
    63.7200        78
    63.7400        76
    63.7600        72
    63.7800        64
    63.8000        64
    63.8200        88
    63.8400        66
    63.8600        62
    63.8800        68
    63.9000        84
    63.9200        66
    63.9400        66
    63.9600        90
    63.9800        56
    64.0000        68
    64.0200        72
    64.0400        52
    64.0600        62
    64.0800        68
    64.1000        64
    64.1200        66
    64.1400        68
    64.1600        66
    64.1800        64
    64.2000        74
    64.2200        64
    64.2400        74
    64.2600       106
    64.2800       108
    64.3000       102
    64.3200        88
    64.3400        70
    64.3600        64
    64.3800        86
    64.4000        86
    64.4200        58
    64.4400        58
    64.4600        72
    64.4800        76
    64.5000        74
    64.5200        72
    64.5400        70
    64.5600        62
    64.5800        62
    64.6000        52
    64.6200        58
    64.6400        68
    64.6600        82
    64.6800        72
    64.7000        74
    64.7200        72
    64.7400        66
    64.7600        74
    64.7800        78
    64.8000        78
    64.8200        78
    64.8400        64
    64.8600        78
    64.8800        86
    64.9000        82
    64.9200        72
    64.9400        72
    64.9600        82
    64.9800        64
    65.0000        76
