/////////////////////////////////////////////////////////////////////////////////
/// Profile Data Ascii Dump (XRD)                                             ///
/////////////////////////////////////////////////////////////////////////////////

  Group     : Swayze
  Data      : GDS55
  File Name : GDS55.RAW

# Profile Datafile
          comment             = Na-bicarb 
          date & time         = 08-03-13 06:52:47 

# Measurement Condition
    X-ray tube
          target              = Cu 
          voltage             = 40.0 (kV)
          current             = 30.0 (mA)
    Slits
          divergence slit     = 2.00000 (deg) 
          scatter slit        = 2.00000 (deg) 
          receiving slit      = 0.15000 (mm)  
    Scanning
          drive axis          = Theta-2Theta 
          scan range          =    4.000 -   65.000 
          scan mode           = Continuous Scan 
          scan speed          =   2.0000 (deg/min) 
          sampling pitch      =   0.0200 (deg) 
          preset time         =   0.60 (sec) 

# Data      [ Total No. = 3051 ]
  <2Theta>   <   I   >
     4.0000       164
     4.0200       196
     4.0400       210
     4.0600       176
     4.0800       196
     4.1000       206
     4.1200       168
     4.1400       174
     4.1600       190
     4.1800       176
     4.2000       156
     4.2200       180
     4.2400       168
     4.2600       180
     4.2800       180
     4.3000       172
     4.3200       170
     4.3400       190
     4.3600       186
     4.3800       170
     4.4000       148
     4.4200       170
     4.4400       144
     4.4600       172
     4.4800       176
     4.5000       174
     4.5200       170
     4.5400       160
     4.5600       154
     4.5800       156
     4.6000       158
     4.6200       138
     4.6400       176
     4.6600       158
     4.6800       172
     4.7000       170
     4.7200       168
     4.7400       160
     4.7600       144
     4.7800       136
     4.8000       158
     4.8200       160
     4.8400       170
     4.8600       154
     4.8800       124
     4.9000       132
     4.9200       154
     4.9400       174
     4.9600       152
     4.9800       164
     5.0000       126
     5.0200       140
     5.0400       154
     5.0600       132
     5.0800       172
     5.1000       148
     5.1200       152
     5.1400       144
     5.1600       160
     5.1800       162
     5.2000       178
     5.2200       140
     5.2400       152
     5.2600       168
     5.2800       160
     5.3000       134
     5.3200       150
     5.3400       156
     5.3600       182
     5.3800       150
     5.4000       142
     5.4200       168
     5.4400       136
     5.4600       154
     5.4800       128
     5.5000       168
     5.5200       150
     5.5400       144
     5.5600       174
     5.5800       160
     5.6000       172
     5.6200       148
     5.6400       164
     5.6600       144
     5.6800       152
     5.7000       166
     5.7200       140
     5.7400       160
     5.7600       152
     5.7800       144
     5.8000       172
     5.8200       176
     5.8400       164
     5.8600       164
     5.8800       148
     5.9000       178
     5.9200       160
     5.9400       164
     5.9600       150
     5.9800       168
     6.0000       154
     6.0200       154
     6.0400       156
     6.0600       154
     6.0800       150
     6.1000       164
     6.1200       138
     6.1400       138
     6.1600       150
     6.1800       152
     6.2000       140
     6.2200       154
     6.2400       130
     6.2600       152
     6.2800       144
     6.3000       142
     6.3200       154
     6.3400       132
     6.3600       154
     6.3800       144
     6.4000       136
     6.4200       122
     6.4400       130
     6.4600       142
     6.4800       142
     6.5000       122
     6.5200       136
     6.5400       132
     6.5600       128
     6.5800       126
     6.6000       140
     6.6200       138
     6.6400       152
     6.6600       136
     6.6800       118
     6.7000       150
     6.7200       130
     6.7400       130
     6.7600       120
     6.7800       132
     6.8000       148
     6.8200       120
     6.8400       118
     6.8600       112
     6.8800       132
     6.9000       116
     6.9200       144
     6.9400       110
     6.9600       126
     6.9800       106
     7.0000       140
     7.0200       134
     7.0400       116
     7.0600       120
     7.0800       124
     7.1000       106
     7.1200       132
     7.1400       116
     7.1600       136
     7.1800       118
     7.2000       108
     7.2200       116
     7.2400       110
     7.2600       130
     7.2800       112
     7.3000       116
     7.3200       116
     7.3400       100
     7.3600       114
     7.3800        98
     7.4000       120
     7.4200       134
     7.4400       114
     7.4600       110
     7.4800       138
     7.5000       102
     7.5200       114
     7.5400       110
     7.5600       118
     7.5800       100
     7.6000       104
     7.6200       110
     7.6400       108
     7.6600        92
     7.6800       120
     7.7000       120
     7.7200       116
     7.7400       124
     7.7600       128
     7.7800       132
     7.8000       110
     7.8200       122
     7.8400       108
     7.8600        98
     7.8800       110
     7.9000       114
     7.9200        94
     7.9400       112
     7.9600       118
     7.9800        94
     8.0000        96
     8.0200       116
     8.0400       106
     8.0600       124
     8.0800       136
     8.1000       146
     8.1200       120
     8.1400       112
     8.1600       104
     8.1800       104
     8.2000       114
     8.2200       118
     8.2400       146
     8.2600       102
     8.2800       120
     8.3000       130
     8.3200       110
     8.3400       110
     8.3600       116
     8.3800       126
     8.4000       110
     8.4200        92
     8.4400       108
     8.4600       122
     8.4800       106
     8.5000       100
     8.5200       122
     8.5400       132
     8.5600       122
     8.5800       128
     8.6000       110
     8.6200       108
     8.6400       120
     8.6600       120
     8.6800       100
     8.7000       122
     8.7200       116
     8.7400       110
     8.7600       128
     8.7800       130
     8.8000       114
     8.8200       110
     8.8400       102
     8.8600       102
     8.8800       104
     8.9000       118
     8.9200       114
     8.9400       120
     8.9600        90
     8.9800       124
     9.0000       124
     9.0200       154
     9.0400       116
     9.0600       106
     9.0800       138
     9.1000       122
     9.1200       110
     9.1400       104
     9.1600       106
     9.1800       124
     9.2000       132
     9.2200       134
     9.2400       124
     9.2600       122
     9.2800       148
     9.3000       114
     9.3200       114
     9.3400       104
     9.3600       132
     9.3800       118
     9.4000       112
     9.4200       104
     9.4400       132
     9.4600       112
     9.4800       122
     9.5000       112
     9.5200       106
     9.5400       104
     9.5600       116
     9.5800       120
     9.6000       108
     9.6200       116
     9.6400       114
     9.6600       142
     9.6800       120
     9.7000       108
     9.7200       132
     9.7400       138
     9.7600       132
     9.7800       140
     9.8000       126
     9.8200       182
     9.8400       146
     9.8600       142
     9.8800       134
     9.9000       144
     9.9200       132
     9.9400        98
     9.9600       104
     9.9800       120
    10.0000        80
    10.0200       106
    10.0400        96
    10.0600       120
    10.0800        98
    10.1000       126
    10.1200        98
    10.1400       140
    10.1600       102
    10.1800       106
    10.2000       112
    10.2200        92
    10.2400        96
    10.2600        90
    10.2800        86
    10.3000       106
    10.3200        82
    10.3400        80
    10.3600       106
    10.3800       102
    10.4000        96
    10.4200       120
    10.4400       100
    10.4600       104
    10.4800        88
    10.5000        96
    10.5200       116
    10.5400        84
    10.5600       108
    10.5800        98
    10.6000        94
    10.6200        96
    10.6400       108
    10.6600        98
    10.6800       104
    10.7000        90
    10.7200       108
    10.7400        96
    10.7600       106
    10.7800        80
    10.8000        86
    10.8200        94
    10.8400        78
    10.8600        90
    10.8800        94
    10.9000       100
    10.9200        96
    10.9400        86
    10.9600       116
    10.9800        80
    11.0000        88
    11.0200        98
    11.0400        94
    11.0600       102
    11.0800        92
    11.1000        96
    11.1200        96
    11.1400       102
    11.1600        88
    11.1800       124
    11.2000       100
    11.2200        74
    11.2400        88
    11.2600        82
    11.2800        84
    11.3000        90
    11.3200        90
    11.3400        78
    11.3600        74
    11.3800        76
    11.4000       102
    11.4200        90
    11.4400        80
    11.4600        96
    11.4800        82
    11.5000        74
    11.5200        82
    11.5400        74
    11.5600        98
    11.5800        90
    11.6000        86
    11.6200        84
    11.6400        84
    11.6600        76
    11.6800        92
    11.7000       102
    11.7200        86
    11.7400        84
    11.7600        96
    11.7800        86
    11.8000        82
    11.8200        66
    11.8400        84
    11.8600        86
    11.8800        80
    11.9000        88
    11.9200        84
    11.9400        94
    11.9600        74
    11.9800        84
    12.0000        68
    12.0200        94
    12.0400        74
    12.0600        96
    12.0800       104
    12.1000        80
    12.1200        76
    12.1400        78
    12.1600        82
    12.1800        86
    12.2000        74
    12.2200        80
    12.2400        74
    12.2600        90
    12.2800        80
    12.3000        78
    12.3200        90
    12.3400        72
    12.3600        86
    12.3800        98
    12.4000        80
    12.4200        76
    12.4400        94
    12.4600        94
    12.4800        76
    12.5000        86
    12.5200        92
    12.5400        92
    12.5600        94
    12.5800        78
    12.6000        88
    12.6200        78
    12.6400        72
    12.6600        64
    12.6800        76
    12.7000        84
    12.7200        52
    12.7400        82
    12.7600        80
    12.7800        68
    12.8000        80
    12.8200        62
    12.8400        80
    12.8600        74
    12.8800        68
    12.9000        86
    12.9200        80
    12.9400        64
    12.9600        68
    12.9800        80
    13.0000        72
    13.0200        84
    13.0400        80
    13.0600        82
    13.0800        68
    13.1000        76
    13.1200        68
    13.1400        66
    13.1600        76
    13.1800        82
    13.2000        78
    13.2200        68
    13.2400        56
    13.2600        82
    13.2800        70
    13.3000        72
    13.3200        62
    13.3400        56
    13.3600        76
    13.3800        58
    13.4000        78
    13.4200        78
    13.4400        68
    13.4600        88
    13.4800        56
    13.5000        60
    13.5200        64
    13.5400        74
    13.5600        88
    13.5800        70
    13.6000        66
    13.6200        70
    13.6400        66
    13.6600        66
    13.6800        80
    13.7000        76
    13.7200        64
    13.7400        64
    13.7600        68
    13.7800        78
    13.8000        60
    13.8200        60
    13.8400        56
    13.8600        66
    13.8800        70
    13.9000        74
    13.9200        66
    13.9400        66
    13.9600        62
    13.9800        70
    14.0000        62
    14.0200        64
    14.0400        76
    14.0600        62
    14.0800        64
    14.1000        66
    14.1200        62
    14.1400        76
    14.1600        72
    14.1800        64
    14.2000        58
    14.2200        74
    14.2400        76
    14.2600        72
    14.2800        74
    14.3000        80
    14.3200        80
    14.3400        78
    14.3600        70
    14.3800        72
    14.4000        60
    14.4200        66
    14.4400        80
    14.4600        74
    14.4800        86
    14.5000       100
    14.5200        72
    14.5400        86
    14.5600        98
    14.5800       100
    14.6000        92
    14.6200       110
    14.6400       106
    14.6600       106
    14.6800       116
    14.7000       106
    14.7200       100
    14.7400       102
    14.7600       128
    14.7800       130
    14.8000       172
    14.8200       182
    14.8400       190
    14.8600       220
    14.8800       264
    14.9000       248
    14.9200       296
    14.9400       260
    14.9600       220
    14.9800       198
    15.0000       142
    15.0200       122
    15.0400       106
    15.0600        82
    15.0800        98
    15.1000        64
    15.1200        64
    15.1400        84
    15.1600        74
    15.1800        58
    15.2000        66
    15.2200        64
    15.2400        64
    15.2600        60
    15.2800        58
    15.3000        78
    15.3200        46
    15.3400        72
    15.3600        48
    15.3800        64
    15.4000        64
    15.4200        62
    15.4400        62
    15.4600        52
    15.4800        64
    15.5000        70
    15.5200        68
    15.5400        62
    15.5600        64
    15.5800        66
    15.6000        60
    15.6200        68
    15.6400        64
    15.6600        66
    15.6800        72
    15.7000        54
    15.7200        66
    15.7400        56
    15.7600        72
    15.7800        78
    15.8000        60
    15.8200        76
    15.8400        58
    15.8600        60
    15.8800        66
    15.9000        66
    15.9200        70
    15.9400        66
    15.9600        62
    15.9800        62
    16.0000        58
    16.0200        50
    16.0400        66
    16.0600        78
    16.0800        60
    16.1000        68
    16.1200        68
    16.1400        82
    16.1600        54
    16.1800        58
    16.2000        54
    16.2200        80
    16.2400        62
    16.2600        58
    16.2800        66
    16.3000        56
    16.3200        62
    16.3400        60
    16.3600        60
    16.3800        60
    16.4000        58
    16.4200        60
    16.4400        60
    16.4600        52
    16.4800        88
    16.5000        76
    16.5200        68
    16.5400        56
    16.5600        76
    16.5800        62
    16.6000        60
    16.6200        56
    16.6400        56
    16.6600        56
    16.6800        70
    16.7000        80
    16.7200        62
    16.7400        54
    16.7600        58
    16.7800        62
    16.8000        66
    16.8200        66
    16.8400        74
    16.8600        70
    16.8800        48
    16.9000        54
    16.9200        52
    16.9400        70
    16.9600        46
    16.9800        54
    17.0000        76
    17.0200        60
    17.0400        80
    17.0600        70
    17.0800        66
    17.1000        56
    17.1200        64
    17.1400        52
    17.1600        64
    17.1800        66
    17.2000        56
    17.2200        50
    17.2400        70
    17.2600        58
    17.2800        70
    17.3000        70
    17.3200        66
    17.3400        76
    17.3600        64
    17.3800        70
    17.4000        70
    17.4200        60
    17.4400        80
    17.4600        70
    17.4800        60
    17.5000        76
    17.5200        78
    17.5400        76
    17.5600        64
    17.5800        72
    17.6000        74
    17.6200        72
    17.6400        70
    17.6600        72
    17.6800        74
    17.7000        70
    17.7200        80
    17.7400        80
    17.7600        74
    17.7800        72
    17.8000        86
    17.8200        68
    17.8400        92
    17.8600        94
    17.8800       100
    17.9000       112
    17.9200       134
    17.9400       140
    17.9600       152
    17.9800       172
    18.0000       188
    18.0200       220
    18.0400       238
    18.0600       268
    18.0800       312
    18.1000       386
    18.1200       460
    18.1400       578
    18.1600       782
    18.1800       958
    18.2000      1106
    18.2200      1248
    18.2400      1380
    18.2600      1476
    18.2800      1308
    18.3000      1052
    18.3200       882
    18.3400       540
    18.3600       368
    18.3800       202
    18.4000       146
    18.4200       118
    18.4400       120
    18.4600       100
    18.4800        98
    18.5000       122
    18.5200       100
    18.5400       100
    18.5600       100
    18.5800       108
    18.6000       100
    18.6200        84
    18.6400        92
    18.6600        92
    18.6800       110
    18.7000       102
    18.7200        80
    18.7400        60
    18.7600        72
    18.7800        66
    18.8000        58
    18.8200        56
    18.8400        48
    18.8600        56
    18.8800        66
    18.9000        52
    18.9200        58
    18.9400        62
    18.9600        64
    18.9800        64
    19.0000        56
    19.0200        66
    19.0400        64
    19.0600        50
    19.0800        56
    19.1000        64
    19.1200        54
    19.1400        56
    19.1600        50
    19.1800        40
    19.2000        48
    19.2200        42
    19.2400        62
    19.2600        64
    19.2800        48
    19.3000        62
    19.3200        44
    19.3400        70
    19.3600        50
    19.3800        56
    19.4000        62
    19.4200        58
    19.4400        70
    19.4600        48
    19.4800        54
    19.5000        62
    19.5200        54
    19.5400        44
    19.5600        40
    19.5800        58
    19.6000        50
    19.6200        46
    19.6400        46
    19.6600        44
    19.6800        60
    19.7000        56
    19.7200        64
    19.7400        50
    19.7600        52
    19.7800        58
    19.8000        60
    19.8200        46
    19.8400        52
    19.8600        66
    19.8800        64
    19.9000        62
    19.9200        56
    19.9400        56
    19.9600        64
    19.9800        58
    20.0000        58
    20.0200        50
    20.0400        58
    20.0600        46
    20.0800        48
    20.1000        60
    20.1200        50
    20.1400        52
    20.1600        54
    20.1800        50
    20.2000        58
    20.2200        42
    20.2400        50
    20.2600        54
    20.2800        62
    20.3000        46
    20.3200        58
    20.3400        58
    20.3600        72
    20.3800        66
    20.4000        56
    20.4200        52
    20.4400        56
    20.4600        56
    20.4800        44
    20.5000        58
    20.5200        46
    20.5400        66
    20.5600        42
    20.5800        66
    20.6000        54
    20.6200        54
    20.6400        60
    20.6600        46
    20.6800        54
    20.7000        62
    20.7200        42
    20.7400        52
    20.7600        64
    20.7800        48
    20.8000        44
    20.8200        50
    20.8400        48
    20.8600        58
    20.8800        56
    20.9000        54
    20.9200        50
    20.9400        54
    20.9600        50
    20.9800        40
    21.0000        70
    21.0200        40
    21.0400        40
    21.0600        58
    21.0800        54
    21.1000        48
    21.1200        50
    21.1400        48
    21.1600        70
    21.1800        60
    21.2000        66
    21.2200        76
    21.2400        70
    21.2600        82
    21.2800        88
    21.3000        86
    21.3200        94
    21.3400        94
    21.3600        82
    21.3800       104
    21.4000       120
    21.4200       140
    21.4400       112
    21.4600       118
    21.4800       116
    21.5000       102
    21.5200        78
    21.5400        80
    21.5600        68
    21.5800        76
    21.6000        74
    21.6200        76
    21.6400        94
    21.6600       112
    21.6800       114
    21.7000       102
    21.7200       120
    21.7400       140
    21.7600       168
    21.7800       194
    21.8000       148
    21.8200       156
    21.8400       160
    21.8600       122
    21.8800        90
    21.9000        68
    21.9200        66
    21.9400        54
    21.9600        52
    21.9800        58
    22.0000        70
    22.0200        64
    22.0400        52
    22.0600        70
    22.0800        72
    22.1000        60
    22.1200        56
    22.1400        62
    22.1600        54
    22.1800        68
    22.2000        64
    22.2200        54
    22.2400        50
    22.2600        80
    22.2800        58
    22.3000        84
    22.3200        58
    22.3400        54
    22.3600        66
    22.3800        70
    22.4000        56
    22.4200        78
    22.4400        54
    22.4600        50
    22.4800        80
    22.5000        44
    22.5200        60
    22.5400        62
    22.5600        64
    22.5800        48
    22.6000        48
    22.6200        66
    22.6400        70
    22.6600        48
    22.6800        46
    22.7000        56
    22.7200        60
    22.7400        80
    22.7600        56
    22.7800        44
    22.8000        50
    22.8200        50
    22.8400        66
    22.8600        68
    22.8800        48
    22.9000        54
    22.9200        44
    22.9400        56
    22.9600        66
    22.9800        76
    23.0000        38
    23.0200        62
    23.0400        62
    23.0600        52
    23.0800        46
    23.1000        60
    23.1200        60
    23.1400        58
    23.1600        62
    23.1800        42
    23.2000        50
    23.2200        66
    23.2400        38
    23.2600        48
    23.2800        52
    23.3000        66
    23.3200        54
    23.3400        60
    23.3600        60
    23.3800        58
    23.4000        58
    23.4200        66
    23.4400        56
    23.4600        76
    23.4800        48
    23.5000        58
    23.5200        62
    23.5400        74
    23.5600        82
    23.5800        86
    23.6000        80
    23.6200        88
    23.6400        82
    23.6600       106
    23.6800       104
    23.7000       124
    23.7200       108
    23.7400       122
    23.7600       144
    23.7800       154
    23.8000       132
    23.8200       138
    23.8400       130
    23.8600       114
    23.8800       114
    23.9000       140
    23.9200       114
    23.9400       144
    23.9600       176
    23.9800       198
    24.0000       210
    24.0200       268
    24.0400       290
    24.0600       266
    24.0800       286
    24.1000       272
    24.1200       238
    24.1400       194
    24.1600       166
    24.1800       142
    24.2000        98
    24.2200        84
    24.2400        82
    24.2600        72
    24.2800        68
    24.3000        56
    24.3200        72
    24.3400        58
    24.3600        56
    24.3800        58
    24.4000        48
    24.4200        58
    24.4400        46
    24.4600        48
    24.4800        52
    24.5000        60
    24.5200        58
    24.5400        54
    24.5600        54
    24.5800        46
    24.6000        48
    24.6200        50
    24.6400        56
    24.6600        54
    24.6800        56
    24.7000        60
    24.7200        50
    24.7400        50
    24.7600        54
    24.7800        60
    24.8000        38
    24.8200        48
    24.8400        60
    24.8600        62
    24.8800        64
    24.9000        70
    24.9200        72
    24.9400        58
    24.9600        56
    24.9800        56
    25.0000        70
    25.0200        64
    25.0400        66
    25.0600        70
    25.0800        72
    25.1000        66
    25.1200        94
    25.1400        90
    25.1600       104
    25.1800       110
    25.2000       136
    25.2200       154
    25.2400       156
    25.2600       180
    25.2800       232
    25.3000       204
    25.3200       266
    25.3400       282
    25.3600       340
    25.3800       418
    25.4000       456
    25.4200       666
    25.4400       736
    25.4600       716
    25.4800       734
    25.5000       758
    25.5200       760
    25.5400       536
    25.5600       454
    25.5800       378
    25.6000       290
    25.6200       202
    25.6400       136
    25.6600       124
    25.6800       100
    25.7000        82
    25.7200        70
    25.7400        76
    25.7600        76
    25.7800        70
    25.8000        70
    25.8200        78
    25.8400        68
    25.8600        68
    25.8800        60
    25.9000        36
    25.9200        68
    25.9400        62
    25.9600        60
    25.9800        50
    26.0000        56
    26.0200        54
    26.0400        68
    26.0600        60
    26.0800        64
    26.1000        52
    26.1200        48
    26.1400        54
    26.1600        68
    26.1800        68
    26.2000        58
    26.2200        64
    26.2400        64
    26.2600        70
    26.2800        48
    26.3000        52
    26.3200        70
    26.3400        62
    26.3600        48
    26.3800        64
    26.4000        72
    26.4200        52
    26.4400        66
    26.4600        58
    26.4800        60
    26.5000        64
    26.5200        68
    26.5400        60
    26.5600        44
    26.5800        66
    26.6000        54
    26.6200        82
    26.6400        72
    26.6600        64
    26.6800        70
    26.7000        78
    26.7200        80
    26.7400        80
    26.7600        74
    26.7800        92
    26.8000        96
    26.8200        94
    26.8400        90
    26.8600       102
    26.8800        82
    26.9000        96
    26.9200        86
    26.9400        88
    26.9600       102
    26.9800       112
    27.0000       110
    27.0200       122
    27.0400       132
    27.0600       140
    27.0800       146
    27.1000       208
    27.1200       146
    27.1400       204
    27.1600       162
    27.1800       168
    27.2000       172
    27.2200       152
    27.2400       166
    27.2600       174
    27.2800       166
    27.3000       136
    27.3200       124
    27.3400       140
    27.3600       150
    27.3800       114
    27.4000       122
    27.4200       126
    27.4400       138
    27.4600       130
    27.4800       136
    27.5000       154
    27.5200       166
    27.5400       172
    27.5600       180
    27.5800       178
    27.6000       194
    27.6200       146
    27.6400       118
    27.6600       112
    27.6800        98
    27.7000        80
    27.7200        74
    27.7400        76
    27.7600        72
    27.7800        70
    27.8000        72
    27.8200        72
    27.8400        64
    27.8600        84
    27.8800        72
    27.9000        58
    27.9200        70
    27.9400        68
    27.9600        70
    27.9800        62
    28.0000        72
    28.0200        62
    28.0400        72
    28.0600        72
    28.0800        86
    28.1000        82
    28.1200       100
    28.1400        70
    28.1600        96
    28.1800        80
    28.2000        96
    28.2200        76
    28.2400        84
    28.2600        90
    28.2800        80
    28.3000        86
    28.3200        76
    28.3400        90
    28.3600        88
    28.3800       124
    28.4000       130
    28.4200        92
    28.4400       114
    28.4600       122
    28.4800       136
    28.5000       132
    28.5200       186
    28.5400       202
    28.5600       192
    28.5800       224
    28.6000       208
    28.6200       274
    28.6400       284
    28.6600       278
    28.6800       300
    28.7000       322
    28.7200       300
    28.7400       322
    28.7600       348
    28.7800       412
    28.8000       490
    28.8200       522
    28.8400       566
    28.8600       530
    28.8800       576
    28.9000       582
    28.9200       664
    28.9400       596
    28.9600       584
    28.9800       602
    29.0000       624
    29.0200       656
    29.0400       646
    29.0600       618
    29.0800       598
    29.1000       528
    29.1200       478
    29.1400       404
    29.1600       340
    29.1800       270
    29.2000       258
    29.2200       216
    29.2400       204
    29.2600       168
    29.2800       154
    29.3000       162
    29.3200       130
    29.3400       112
    29.3600       132
    29.3800       108
    29.4000        90
    29.4200        98
    29.4400       116
    29.4600       118
    29.4800       106
    29.5000       114
    29.5200       126
    29.5400       134
    29.5600       148
    29.5800       144
    29.6000       146
    29.6200       160
    29.6400       148
    29.6600       194
    29.6800       176
    29.7000       180
    29.7200       186
    29.7400       216
    29.7600       254
    29.7800       270
    29.8000       324
    29.8200       424
    29.8400       474
    29.8600       588
    29.8800       662
    29.9000       844
    29.9200       948
    29.9400      1194
    29.9600      1314
    29.9800      1644
    30.0000      1812
    30.0200      2150
    30.0400      2608
    30.0600      2978
    30.0800      3334
    30.1000      3610
    30.1200      3488
    30.1400      3448
    30.1600      3356
    30.1800      3032
    30.2000      2866
    30.2200      2514
    30.2400      2336
    30.2600      2146
    30.2800      1934
    30.3000      1848
    30.3200      1866
    30.3400      1754
    30.3600      1586
    30.3800      1356
    30.4000      1150
    30.4200       980
    30.4400       774
    30.4600       692
    30.4800       526
    30.5000       492
    30.5200       416
    30.5400       390
    30.5600       358
    30.5800       378
    30.6000       330
    30.6200       332
    30.6400       282
    30.6600       270
    30.6800       234
    30.7000       216
    30.7200       186
    30.7400       160
    30.7600       142
    30.7800       128
    30.8000       132
    30.8200       142
    30.8400       138
    30.8600       130
    30.8800       152
    30.9000       142
    30.9200       154
    30.9400       142
    30.9600       152
    30.9800       170
    31.0000       170
    31.0200       178
    31.0400       156
    31.0600       176
    31.0800       200
    31.1000       176
    31.1200       180
    31.1400       208
    31.1600       210
    31.1800       202
    31.2000       192
    31.2200       200
    31.2400       240
    31.2600       206
    31.2800       218
    31.3000       212
    31.3200       238
    31.3400       260
    31.3600       252
    31.3800       256
    31.4000       258
    31.4200       296
    31.4400       332
    31.4600       296
    31.4800       326
    31.5000       310
    31.5200       268
    31.5400       232
    31.5600       272
    31.5800       192
    31.6000       182
    31.6200       166
    31.6400       178
    31.6600       164
    31.6800       162
    31.7000       156
    31.7200       188
    31.7400       178
    31.7600       228
    31.7800       234
    31.8000       264
    31.8200       256
    31.8400       308
    31.8600       296
    31.8800       296
    31.9000       286
    31.9200       272
    31.9400       240
    31.9600       200
    31.9800       202
    32.0000       192
    32.0200       132
    32.0400       128
    32.0600       112
    32.0800       104
    32.1000        96
    32.1200       104
    32.1400        96
    32.1600        98
    32.1800        84
    32.2000        92
    32.2200        94
    32.2400        96
    32.2600        96
    32.2800        92
    32.3000       106
    32.3200       100
    32.3400       114
    32.3600       106
    32.3800        98
    32.4000       104
    32.4200       104
    32.4400       104
    32.4600       126
    32.4800       110
    32.5000       112
    32.5200       142
    32.5400       122
    32.5600       152
    32.5800       168
    32.6000       176
    32.6200       184
    32.6400       212
    32.6600       218
    32.6800       214
    32.7000       224
    32.7200       228
    32.7400       216
    32.7600       182
    32.7800       210
    32.8000       168
    32.8200       134
    32.8400       140
    32.8600       116
    32.8800       130
    32.9000       108
    32.9200       138
    32.9400       124
    32.9600       132
    32.9800       144
    33.0000       140
    33.0200       168
    33.0400       148
    33.0600       170
    33.0800       190
    33.1000       182
    33.1200       250
    33.1400       294
    33.1600       350
    33.1800       378
    33.2000       414
    33.2200       428
    33.2400       522
    33.2600       514
    33.2800       484
    33.3000       506
    33.3200       440
    33.3400       376
    33.3600       428
    33.3800       332
    33.4000       296
    33.4200       274
    33.4400       280
    33.4600       296
    33.4800       314
    33.5000       326
    33.5200       364
    33.5400       366
    33.5600       412
    33.5800       458
    33.6000       418
    33.6200       418
    33.6400       416
    33.6600       396
    33.6800       390
    33.7000       388
    33.7200       430
    33.7400       414
    33.7600       496
    33.7800       448
    33.8000       458
    33.8200       458
    33.8400       432
    33.8600       382
    33.8800       374
    33.9000       356
    33.9200       298
    33.9400       264
    33.9600       262
    33.9800       230
    34.0000       258
    34.0200       232
    34.0400       202
    34.0600       244
    34.0800       288
    34.1000       280
    34.1200       322
    34.1400       356
    34.1600       332
    34.1800       430
    34.2000       502
    34.2200       564
    34.2400       702
    34.2600       790
    34.2800       992
    34.3000      1106
    34.3200      1224
    34.3400      1448
    34.3600      1548
    34.3800      1566
    34.4000      1564
    34.4200      1548
    34.4400      1474
    34.4600      1254
    34.4800       996
    34.5000       788
    34.5200       668
    34.5400       454
    34.5600       358
    34.5800       260
    34.6000       214
    34.6200       200
    34.6400       150
    34.6600       128
    34.6800       130
    34.7000       112
    34.7200        94
    34.7400       116
    34.7600       104
    34.7800        86
    34.8000        90
    34.8200       116
    34.8400        94
    34.8600       100
    34.8800       110
    34.9000       108
    34.9200       116
    34.9400       114
    34.9600       144
    34.9800       116
    35.0000       144
    35.0200       154
    35.0400       150
    35.0600       160
    35.0800       194
    35.1000       180
    35.1200       170
    35.1400       212
    35.1600       192
    35.1800       180
    35.2000       174
    35.2200       164
    35.2400       134
    35.2600       130
    35.2800       122
    35.3000       112
    35.3200       112
    35.3400        90
    35.3600        96
    35.3800       102
    35.4000        90
    35.4200       108
    35.4400        98
    35.4600        94
    35.4800        90
    35.5000        84
    35.5200        76
    35.5400        90
    35.5600       112
    35.5800       118
    35.6000       116
    35.6200       100
    35.6400        98
    35.6600        92
    35.6800       102
    35.7000        84
    35.7200        70
    35.7400        88
    35.7600        96
    35.7800        82
    35.8000        82
    35.8200        78
    35.8400        82
    35.8600        80
    35.8800        88
    35.9000        98
    35.9200        88
    35.9400        82
    35.9600       100
    35.9800       138
    36.0000       108
    36.0200       112
    36.0400       132
    36.0600       132
    36.0800       160
    36.1000       194
    36.1200       176
    36.1400       242
    36.1600       226
    36.1800       232
    36.2000       248
    36.2200       228
    36.2400       220
    36.2600       230
    36.2800       188
    36.3000       192
    36.3200       174
    36.3400       142
    36.3600       134
    36.3800       118
    36.4000       106
    36.4200       128
    36.4400       102
    36.4600       118
    36.4800       134
    36.5000       146
    36.5200       186
    36.5400       182
    36.5600       204
    36.5800       222
    36.6000       218
    36.6200       220
    36.6400       218
    36.6600       194
    36.6800       172
    36.7000       172
    36.7200       162
    36.7400       136
    36.7600       116
    36.7800        96
    36.8000        84
    36.8200        82
    36.8400        88
    36.8600        84
    36.8800        80
    36.9000        66
    36.9200        86
    36.9400        78
    36.9600        94
    36.9800        90
    37.0000        72
    37.0200        80
    37.0400       100
    37.0600        82
    37.0800       108
    37.1000       102
    37.1200       120
    37.1400       124
    37.1600       138
    37.1800       156
    37.2000       148
    37.2200       172
    37.2400       142
    37.2600       154
    37.2800       150
    37.3000       140
    37.3200        96
    37.3400       106
    37.3600       118
    37.3800        98
    37.4000       134
    37.4200        96
    37.4400        94
    37.4600       110
    37.4800        92
    37.5000        96
    37.5200        64
    37.5400        82
    37.5600        74
    37.5800        82
    37.6000        72
    37.6200        86
    37.6400        74
    37.6600        80
    37.6800        66
    37.7000        62
    37.7200        88
    37.7400        76
    37.7600        82
    37.7800        78
    37.8000        82
    37.8200        88
    37.8400        90
    37.8600        88
    37.8800        80
    37.9000        90
    37.9200        90
    37.9400       100
    37.9600        88
    37.9800        78
    38.0000        68
    38.0200        86
    38.0400        82
    38.0600        72
    38.0800        50
    38.1000        72
    38.1200        72
    38.1400        68
    38.1600        82
    38.1800        82
    38.2000        66
    38.2200        72
    38.2400        76
    38.2600        68
    38.2800        74
    38.3000        66
    38.3200        86
    38.3400        98
    38.3600       102
    38.3800        98
    38.4000       108
    38.4200       124
    38.4400       122
    38.4600       136
    38.4800       140
    38.5000       142
    38.5200       152
    38.5400       138
    38.5600       162
    38.5800       124
    38.6000       138
    38.6200       148
    38.6400       140
    38.6600       134
    38.6800       168
    38.7000       186
    38.7200       168
    38.7400       192
    38.7600       186
    38.7800       242
    38.8000       296
    38.8200       362
    38.8400       372
    38.8600       456
    38.8800       478
    38.9000       576
    38.9200       602
    38.9400       628
    38.9600       660
    38.9800       666
    39.0000       568
    39.0200       566
    39.0400       472
    39.0600       408
    39.0800       370
    39.1000       280
    39.1200       276
    39.1400       184
    39.1600       164
    39.1800       178
    39.2000       158
    39.2200       164
    39.2400       132
    39.2600       164
    39.2800       116
    39.3000       154
    39.3200       116
    39.3400       100
    39.3600       116
    39.3800       126
    39.4000       110
    39.4200       118
    39.4400       106
    39.4600       116
    39.4800       112
    39.5000        92
    39.5200        98
    39.5400       114
    39.5600        98
    39.5800        88
    39.6000       106
    39.6200        72
    39.6400        92
    39.6600        80
    39.6800        84
    39.7000       100
    39.7200        86
    39.7400        70
    39.7600        72
    39.7800        74
    39.8000        92
    39.8200        94
    39.8400       100
    39.8600       108
    39.8800        88
    39.9000       102
    39.9200        80
    39.9400       100
    39.9600        86
    39.9800        88
    40.0000        88
    40.0200       104
    40.0400        94
    40.0600        86
    40.0800        98
    40.1000        86
    40.1200        98
    40.1400       114
    40.1600       116
    40.1800       132
    40.2000       146
    40.2200       124
    40.2400       166
    40.2600       148
    40.2800       192
    40.3000       202
    40.3200       220
    40.3400       240
    40.3600       286
    40.3800       286
    40.4000       362
    40.4200       378
    40.4400       410
    40.4600       466
    40.4800       528
    40.5000       550
    40.5200       620
    40.5400       738
    40.5600       852
    40.5800       918
    40.6000      1078
    40.6200      1170
    40.6400      1176
    40.6600      1184
    40.6800      1118
    40.7000      1020
    40.7200       892
    40.7400       850
    40.7600       704
    40.7800       606
    40.8000       524
    40.8200       446
    40.8400       320
    40.8600       268
    40.8800       234
    40.9000       190
    40.9200       188
    40.9400       170
    40.9600       146
    40.9800       148
    41.0000       132
    41.0200       118
    41.0400       106
    41.0600        92
    41.0800       100
    41.1000       102
    41.1200        80
    41.1400       100
    41.1600        78
    41.1800        82
    41.2000        86
    41.2200        72
    41.2400        64
    41.2600        68
    41.2800        72
    41.3000        82
    41.3200        82
    41.3400        58
    41.3600        74
    41.3800        80
    41.4000        72
    41.4200        62
    41.4400        80
    41.4600        78
    41.4800        68
    41.5000        76
    41.5200        76
    41.5400        70
    41.5600        64
    41.5800        70
    41.6000        78
    41.6200        54
    41.6400        54
    41.6600        72
    41.6800        70
    41.7000        60
    41.7200        78
    41.7400        56
    41.7600        88
    41.7800        74
    41.8000        72
    41.8200        68
    41.8400        68
    41.8600        68
    41.8800        84
    41.9000        84
    41.9200        92
    41.9400        82
    41.9600        72
    41.9800        74
    42.0000        76
    42.0200        76
    42.0400        76
    42.0600        58
    42.0800        90
    42.1000        66
    42.1200        72
    42.1400        84
    42.1600        80
    42.1800        62
    42.2000        66
    42.2200        84
    42.2400        74
    42.2600        70
    42.2800        72
    42.3000        72
    42.3200        78
    42.3400        62
    42.3600        68
    42.3800        70
    42.4000        90
    42.4200        90
    42.4400       100
    42.4600        82
    42.4800        68
    42.5000        84
    42.5200       100
    42.5400       102
    42.5600        90
    42.5800        94
    42.6000       124
    42.6200       110
    42.6400       130
    42.6600       124
    42.6800       122
    42.7000       126
    42.7200       116
    42.7400       114
    42.7600       106
    42.7800       114
    42.8000       124
    42.8200       106
    42.8400       124
    42.8600       126
    42.8800        94
    42.9000       126
    42.9200       130
    42.9400       130
    42.9600       142
    42.9800       156
    43.0000       166
    43.0200       164
    43.0400       182
    43.0600       212
    43.0800       242
    43.1000       222
    43.1200       232
    43.1400       266
    43.1600       248
    43.1800       242
    43.2000       270
    43.2200       248
    43.2400       270
    43.2600       260
    43.2800       268
    43.3000       238
    43.3200       260
    43.3400       256
    43.3600       248
    43.3800       204
    43.4000       204
    43.4200       178
    43.4400       178
    43.4600       170
    43.4800       132
    43.5000       128
    43.5200       106
    43.5400        96
    43.5600        94
    43.5800        88
    43.6000        86
    43.6200        84
    43.6400        86
    43.6600       102
    43.6800       110
    43.7000        88
    43.7200        90
    43.7400       108
    43.7600        94
    43.7800       104
    43.8000        80
    43.8200        88
    43.8400        84
    43.8600       110
    43.8800        90
    43.9000        88
    43.9200       100
    43.9400        72
    43.9600       108
    43.9800       106
    44.0000       114
    44.0200        94
    44.0400       128
    44.0600       116
    44.0800       122
    44.1000       150
    44.1200       166
    44.1400       166
    44.1600       188
    44.1800       212
    44.2000       226
    44.2200       264
    44.2400       272
    44.2600       384
    44.2800       430
    44.3000       420
    44.3200       510
    44.3400       624
    44.3600       756
    44.3800       778
    44.4000       892
    44.4200       922
    44.4400       860
    44.4600       812
    44.4800       800
    44.5000       826
    44.5200       728
    44.5400       654
    44.5600       546
    44.5800       456
    44.6000       370
    44.6200       342
    44.6400       270
    44.6600       224
    44.6800       178
    44.7000       144
    44.7200       126
    44.7400       122
    44.7600       114
    44.7800       108
    44.8000        82
    44.8200        88
    44.8400        78
    44.8600        90
    44.8800       102
    44.9000        68
    44.9200        92
    44.9400        82
    44.9600        86
    44.9800        88
    45.0000       116
    45.0200       108
    45.0400        98
    45.0600       108
    45.0800       108
    45.1000       126
    45.1200       128
    45.1400       148
    45.1600       156
    45.1800       156
    45.2000       160
    45.2200       150
    45.2400       176
    45.2600       168
    45.2800       158
    45.3000       140
    45.3200       182
    45.3400       170
    45.3600       184
    45.3800       168
    45.4000       186
    45.4200       172
    45.4400       212
    45.4600       260
    45.4800       240
    45.5000       270
    45.5200       318
    45.5400       320
    45.5600       334
    45.5800       308
    45.6000       292
    45.6200       300
    45.6400       254
    45.6600       236
    45.6800       250
    45.7000       226
    45.7200       224
    45.7400       238
    45.7600       210
    45.7800       244
    45.8000       278
    45.8200       320
    45.8400       356
    45.8600       424
    45.8800       494
    45.9000       584
    45.9200       540
    45.9400       532
    45.9600       578
    45.9800       576
    46.0000       584
    46.0200       588
    46.0400       534
    46.0600       420
    46.0800       390
    46.1000       352
    46.1200       270
    46.1400       244
    46.1600       212
    46.1800       186
    46.2000       158
    46.2200       180
    46.2400       122
    46.2600       116
    46.2800       114
    46.3000       114
    46.3200       116
    46.3400       104
    46.3600       114
    46.3800       104
    46.4000       120
    46.4200       108
    46.4400       108
    46.4600       122
    46.4800       102
    46.5000       144
    46.5200       142
    46.5400       142
    46.5600       136
    46.5800       164
    46.6000       198
    46.6200       178
    46.6400       234
    46.6600       216
    46.6800       268
    46.7000       270
    46.7200       326
    46.7400       302
    46.7600       316
    46.7800       334
    46.8000       376
    46.8200       364
    46.8400       336
    46.8600       290
    46.8800       254
    46.9000       244
    46.9200       228
    46.9400       206
    46.9600       214
    46.9800       192
    47.0000       156
    47.0200       168
    47.0400       198
    47.0600       138
    47.0800       152
    47.1000       150
    47.1200       140
    47.1400       144
    47.1600       150
    47.1800       174
    47.2000       158
    47.2200       188
    47.2400       178
    47.2600       168
    47.2800       190
    47.3000       178
    47.3200       212
    47.3400       194
    47.3600       246
    47.3800       254
    47.4000       286
    47.4200       310
    47.4400       342
    47.4600       370
    47.4800       428
    47.5000       400
    47.5200       396
    47.5400       408
    47.5600       488
    47.5800       478
    47.6000       532
    47.6200       522
    47.6400       510
    47.6600       464
    47.6800       440
    47.7000       372
    47.7200       344
    47.7400       318
    47.7600       298
    47.7800       272
    47.8000       204
    47.8200       184
    47.8400       178
    47.8600       124
    47.8800       136
    47.9000        98
    47.9200        96
    47.9400        92
    47.9600       106
    47.9800       102
    48.0000        86
    48.0200        94
    48.0400        86
    48.0600       102
    48.0800        98
    48.1000       112
    48.1200       112
    48.1400       106
    48.1600       110
    48.1800       116
    48.2000       114
    48.2200       118
    48.2400       110
    48.2600       130
    48.2800       130
    48.3000       142
    48.3200       158
    48.3400       184
    48.3600       174
    48.3800       212
    48.4000       192
    48.4200       264
    48.4400       228
    48.4600       242
    48.4800       244
    48.5000       236
    48.5200       224
    48.5400       196
    48.5600       200
    48.5800       162
    48.6000       152
    48.6200       160
    48.6400       148
    48.6600       122
    48.6800       106
    48.7000       126
    48.7200       126
    48.7400       122
    48.7600       102
    48.7800        92
    48.8000        80
    48.8200        76
    48.8400        76
    48.8600        86
    48.8800        92
    48.9000        88
    48.9200        80
    48.9400        62
    48.9600        70
    48.9800        82
    49.0000        84
    49.0200        86
    49.0400        68
    49.0600        82
    49.0800        86
    49.1000       100
    49.1200        60
    49.1400        78
    49.1600        84
    49.1800        70
    49.2000        80
    49.2200        82
    49.2400        84
    49.2600        78
    49.2800        72
    49.3000        76
    49.3200        82
    49.3400       104
    49.3600        98
    49.3800        86
    49.4000        82
    49.4200        86
    49.4400       104
    49.4600        78
    49.4800        94
    49.5000        98
    49.5200       106
    49.5400        66
    49.5600        96
    49.5800       102
    49.6000        86
    49.6200        90
    49.6400       104
    49.6600        98
    49.6800        94
    49.7000        72
    49.7200       110
    49.7400        84
    49.7600       108
    49.7800        92
    49.8000        94
    49.8200       108
    49.8400       104
    49.8600       122
    49.8800       114
    49.9000        92
    49.9200       138
    49.9400       110
    49.9600        92
    49.9800        94
    50.0000       100
    50.0200       102
    50.0400       132
    50.0600        92
    50.0800       102
    50.1000       114
    50.1200       108
    50.1400        96
    50.1600       100
    50.1800       102
    50.2000        96
    50.2200        94
    50.2400       110
    50.2600       112
    50.2800       120
    50.3000       120
    50.3200       102
    50.3400       108
    50.3600       100
    50.3800        92
    50.4000       102
    50.4200       104
    50.4400       110
    50.4600        82
    50.4800        94
    50.5000        92
    50.5200       102
    50.5400       100
    50.5600       112
    50.5800        86
    50.6000        94
    50.6200        90
    50.6400       104
    50.6600        96
    50.6800        94
    50.7000        88
    50.7200        84
    50.7400        78
    50.7600        82
    50.7800        80
    50.8000        74
    50.8200        74
    50.8400        94
    50.8600        86
    50.8800       100
    50.9000        96
    50.9200       104
    50.9400       112
    50.9600       110
    50.9800       114
    51.0000       122
    51.0200       120
    51.0400       138
    51.0600       130
    51.0800       138
    51.1000       132
    51.1200       148
    51.1400       146
    51.1600       154
    51.1800       170
    51.2000       160
    51.2200       202
    51.2400       194
    51.2600       208
    51.2800       190
    51.3000       174
    51.3200       140
    51.3400       178
    51.3600       168
    51.3800       166
    51.4000       150
    51.4200       156
    51.4400       162
    51.4600       142
    51.4800       132
    51.5000       140
    51.5200       116
    51.5400       122
    51.5600       120
    51.5800       112
    51.6000       118
    51.6200       116
    51.6400        92
    51.6600       108
    51.6800       102
    51.7000       112
    51.7200        86
    51.7400       110
    51.7600       104
    51.7800        94
    51.8000        96
    51.8200       104
    51.8400       124
    51.8600       112
    51.8800       110
    51.9000       114
    51.9200       108
    51.9400       126
    51.9600       118
    51.9800       132
    52.0000       134
    52.0200       134
    52.0400       150
    52.0600       138
    52.0800       128
    52.1000       136
    52.1200       138
    52.1400       100
    52.1600       140
    52.1800       134
    52.2000       144
    52.2200       168
    52.2400       176
    52.2600       156
    52.2800       182
    52.3000       174
    52.3200       206
    52.3400       208
    52.3600       226
    52.3800       224
    52.4000       230
    52.4200       260
    52.4400       244
    52.4600       272
    52.4800       264
    52.5000       284
    52.5200       268
    52.5400       276
    52.5600       242
    52.5800       274
    52.6000       316
    52.6200       302
    52.6400       282
    52.6600       262
    52.6800       216
    52.7000       238
    52.7200       220
    52.7400       162
    52.7600       190
    52.7800       152
    52.8000       182
    52.8200       154
    52.8400       126
    52.8600       122
    52.8800       146
    52.9000       132
    52.9200       116
    52.9400       126
    52.9600       142
    52.9800       136
    53.0000       154
    53.0200       154
    53.0400       122
    53.0600       148
    53.0800       150
    53.1000       150
    53.1200       166
    53.1400       160
    53.1600       160
    53.1800       154
    53.2000       182
    53.2200       198
    53.2400       168
    53.2600       130
    53.2800       146
    53.3000       150
    53.3200       140
    53.3400       170
    53.3600       134
    53.3800       142
    53.4000       148
    53.4200       166
    53.4400       138
    53.4600       136
    53.4800       142
    53.5000       140
    53.5200       140
    53.5400       112
    53.5600       124
    53.5800       142
    53.6000       136
    53.6200       130
    53.6400       134
    53.6600       114
    53.6800       142
    53.7000       108
    53.7200       122
    53.7400       118
    53.7600       130
    53.7800       106
    53.8000       120
    53.8200       106
    53.8400       140
    53.8600       140
    53.8800       158
    53.9000       136
    53.9200       136
    53.9400       152
    53.9600       138
    53.9800       108
    54.0000       142
    54.0200       158
    54.0400       162
    54.0600       148
    54.0800       154
    54.1000       180
    54.1200       168
    54.1400       170
    54.1600       196
    54.1800       162
    54.2000       178
    54.2200       180
    54.2400       154
    54.2600       162
    54.2800       150
    54.3000       164
    54.3200       130
    54.3400       112
    54.3600       124
    54.3800       114
    54.4000       106
    54.4200       106
    54.4400        88
    54.4600       104
    54.4800        64
    54.5000        76
    54.5200        94
    54.5400       110
    54.5600        74
    54.5800       100
    54.6000        78
    54.6200        84
    54.6400        84
    54.6600        74
    54.6800        80
    54.7000        86
    54.7200        88
    54.7400       100
    54.7600        72
    54.7800       102
    54.8000       108
    54.8200       106
    54.8400       104
    54.8600       120
    54.8800        92
    54.9000       122
    54.9200       106
    54.9400       120
    54.9600       126
    54.9800       122
    55.0000       146
    55.0200       138
    55.0400       160
    55.0600       224
    55.0800       214
    55.1000       242
    55.1200       262
    55.1400       288
    55.1600       272
    55.1800       246
    55.2000       238
    55.2200       238
    55.2400       242
    55.2600       216
    55.2800       178
    55.3000       180
    55.3200       184
    55.3400       170
    55.3600       148
    55.3800       144
    55.4000       132
    55.4200       108
    55.4400       124
    55.4600        90
    55.4800        94
    55.5000        98
    55.5200       108
    55.5400        90
    55.5600       100
    55.5800        88
    55.6000        90
    55.6200        68
    55.6400       100
    55.6600       102
    55.6800       100
    55.7000       110
    55.7200        82
    55.7400        94
    55.7600        82
    55.7800       102
    55.8000       104
    55.8200       110
    55.8400       116
    55.8600       138
    55.8800       146
    55.9000       124
    55.9200       134
    55.9400       128
    55.9600       138
    55.9800       140
    56.0000       122
    56.0200       134
    56.0400       140
    56.0600       122
    56.0800       146
    56.1000       128
    56.1200       132
    56.1400       140
    56.1600       130
    56.1800       128
    56.2000       132
    56.2200       118
    56.2400       158
    56.2600       140
    56.2800       142
    56.3000       170
    56.3200       198
    56.3400       204
    56.3600       210
    56.3800       226
    56.4000       196
    56.4200       170
    56.4400       176
    56.4600       190
    56.4800       154
    56.5000       178
    56.5200       152
    56.5400       158
    56.5600       160
    56.5800       158
    56.6000       158
    56.6200       164
    56.6400       134
    56.6600       172
    56.6800       152
    56.7000       152
    56.7200       190
    56.7400       180
    56.7600       196
    56.7800       260
    56.8000       294
    56.8200       334
    56.8400       410
    56.8600       506
    56.8800       576
    56.9000       778
    56.9200       900
    56.9400      1000
    56.9600      1050
    56.9800       962
    57.0000       834
    57.0200       634
    57.0400       546
    57.0600       510
    57.0800       562
    57.1000       552
    57.1200       582
    57.1400       510
    57.1600       370
    57.1800       264
    57.2000       200
    57.2200       164
    57.2400       134
    57.2600       118
    57.2800       108
    57.3000       110
    57.3200       100
    57.3400       114
    57.3600       108
    57.3800       110
    57.4000        92
    57.4200        84
    57.4400        96
    57.4600       112
    57.4800        96
    57.5000       112
    57.5200       102
    57.5400        82
    57.5600        84
    57.5800       110
    57.6000        96
    57.6200       104
    57.6400        82
    57.6600        84
    57.6800        98
    57.7000       100
    57.7200        84
    57.7400        96
    57.7600       124
    57.7800       110
    57.8000       102
    57.8200       110
    57.8400       136
    57.8600       116
    57.8800       130
    57.9000       130
    57.9200       124
    57.9400       134
    57.9600       158
    57.9800       138
    58.0000       140
    58.0200       158
    58.0400       178
    58.0600       148
    58.0800       188
    58.1000       202
    58.1200       194
    58.1400       218
    58.1600       226
    58.1800       198
    58.2000       204
    58.2200       198
    58.2400       212
    58.2600       200
    58.2800       208
    58.3000       238
    58.3200       258
    58.3400       250
    58.3600       222
    58.3800       198
    58.4000       184
    58.4200       140
    58.4400       146
    58.4600       158
    58.4800       146
    58.5000       134
    58.5200       148
    58.5400       122
    58.5600       106
    58.5800       106
    58.6000       100
    58.6200        72
    58.6400        82
    58.6600        80
    58.6800        52
    58.7000        64
    58.7200        58
    58.7400        64
    58.7600        70
    58.7800        68
    58.8000        56
    58.8200        38
    58.8400        64
    58.8600        58
    58.8800        70
    58.9000        78
    58.9200        82
    58.9400        60
    58.9600        80
    58.9800        88
    59.0000        88
    59.0200       108
    59.0400        78
    59.0600        92
    59.0800        94
    59.1000       106
    59.1200       104
    59.1400       128
    59.1600       156
    59.1800       144
    59.2000       116
    59.2200       100
    59.2400       118
    59.2600        96
    59.2800        90
    59.3000       104
    59.3200        86
    59.3400        98
    59.3600        78
    59.3800        78
    59.4000        82
    59.4200        68
    59.4400        68
    59.4600        62
    59.4800        52
    59.5000        78
    59.5200        74
    59.5400        82
    59.5600        76
    59.5800        56
    59.6000        60
    59.6200        76
    59.6400        62
    59.6600        96
    59.6800        72
    59.7000        62
    59.7200        78
    59.7400        70
    59.7600        74
    59.7800        98
    59.8000        92
    59.8200       126
    59.8400        90
    59.8600        82
    59.8800        94
    59.9000       112
    59.9200       110
    59.9400       100
    59.9600        90
    59.9800        94
    60.0000       104
    60.0200        78
    60.0400        84
    60.0600        96
    60.0800       104
    60.1000        94
    60.1200       128
    60.1400       102
    60.1600       114
    60.1800       122
    60.2000       100
    60.2200       112
    60.2400       120
    60.2600       120
    60.2800       136
    60.3000       142
    60.3200       140
    60.3400       138
    60.3600       152
    60.3800       188
    60.4000       190
    60.4200       206
    60.4400       234
    60.4600       236
    60.4800       244
    60.5000       218
    60.5200       206
    60.5400       214
    60.5600       242
    60.5800       212
    60.6000       248
    60.6200       242
    60.6400       244
    60.6600       246
    60.6800       242
    60.7000       264
    60.7200       236
    60.7400       212
    60.7600       220
    60.7800       238
    60.8000       238
    60.8200       218
    60.8400       162
    60.8600       162
    60.8800       158
    60.9000       134
    60.9200       136
    60.9400       116
    60.9600       102
    60.9800       108
    61.0000        94
    61.0200        88
    61.0400        98
    61.0600        76
    61.0800        64
    61.1000        68
    61.1200        68
    61.1400        74
    61.1600        56
    61.1800        64
    61.2000        66
    61.2200        56
    61.2400        68
    61.2600        54
    61.2800        58
    61.3000        70
    61.3200        50
    61.3400        76
    61.3600        70
    61.3800        68
    61.4000        66
    61.4200        82
    61.4400        68
    61.4600        86
    61.4800        74
    61.5000        70
    61.5200        78
    61.5400        82
    61.5600        88
    61.5800        88
    61.6000        72
    61.6200        78
    61.6400        84
    61.6600        88
    61.6800        66
    61.7000        60
    61.7200        84
    61.7400        68
    61.7600        82
    61.7800        74
    61.8000        72
    61.8200        62
    61.8400        56
    61.8600        74
    61.8800        84
    61.9000        54
    61.9200        74
    61.9400        68
    61.9600        58
    61.9800        68
    62.0000        64
    62.0200        82
    62.0400        62
    62.0600        78
    62.0800        72
    62.1000        66
    62.1200        76
    62.1400        72
    62.1600        64
    62.1800        66
    62.2000        68
    62.2200        76
    62.2400        90
    62.2600        72
    62.2800        84
    62.3000        88
    62.3200        96
    62.3400        98
    62.3600        90
    62.3800        92
    62.4000       116
    62.4200       136
    62.4400       144
    62.4600       126
    62.4800       150
    62.5000       170
    62.5200       204
    62.5400       194
    62.5600       210
    62.5800       222
    62.6000       228
    62.6200       192
    62.6400       190
    62.6600       162
    62.6800       154
    62.7000       176
    62.7200       158
    62.7400       146
    62.7600       142
    62.7800       128
    62.8000       152
    62.8200       124
    62.8400       100
    62.8600        80
    62.8800       102
    62.9000        70
    62.9200        70
    62.9400        92
    62.9600        80
    62.9800        76
    63.0000        82
    63.0200        78
    63.0400        86
    63.0600        94
    63.0800        90
    63.1000        88
    63.1200        88
    63.1400        96
    63.1600        86
    63.1800       106
    63.2000        78
    63.2200        92
    63.2400        96
    63.2600       102
    63.2800        98
    63.3000       106
    63.3200       104
    63.3400       102
    63.3600       100
    63.3800       104
    63.4000        98
    63.4200        80
    63.4400        80
    63.4600        88
    63.4800        82
    63.5000        58
    63.5200        62
    63.5400        64
    63.5600        74
    63.5800        70
    63.6000        66
    63.6200        80
    63.6400        80
    63.6600        56
    63.6800        70
    63.7000        54
    63.7200        60
    63.7400        48
    63.7600        68
    63.7800        60
    63.8000        68
    63.8200        52
    63.8400        62
    63.8600        66
    63.8800        64
    63.9000        82
    63.9200        76
    63.9400        94
    63.9600        72
    63.9800        58
    64.0000        76
    64.0200        74
    64.0400        66
    64.0600        72
    64.0800        80
    64.1000        68
    64.1200        66
    64.1400        82
    64.1600        68
    64.1800        86
    64.2000        78
    64.2200        80
    64.2400        88
    64.2600        68
    64.2800        98
    64.3000       116
    64.3200       114
    64.3400       112
    64.3600       124
    64.3800       152
    64.4000       150
    64.4200       108
    64.4400       100
    64.4600       104
    64.4800        72
    64.5000       112
    64.5200       100
    64.5400        82
    64.5600        88
    64.5800       110
    64.6000       104
    64.6200        76
    64.6400        64
    64.6600        78
    64.6800        86
    64.7000        78
    64.7200        88
    64.7400        56
    64.7600        84
    64.7800        78
    64.8000        64
    64.8200        78
    64.8400       100
    64.8600        88
    64.8800        72
    64.9000        84
    64.9200        74
    64.9400        76
    64.9600        72
    64.9800        84
    65.0000        74
