/////////////////////////////////////////////////////////////////////////////////
/// Profile Data Ascii Dump (XRD)                                             ///
/////////////////////////////////////////////////////////////////////////////////

  Group     : Swayze
  Data      : GDS681
  File Name : GDS681.RAW

# Profile Datafile
          comment             = Magnesite 
          date & time         = 08-03-12 07:31:19 

# Measurement Condition
    X-ray tube
          target              = Cu 
          voltage             = 40.0 (kV)
          current             = 30.0 (mA)
    Slits
          divergence slit     = 2.00000 (deg) 
          scatter slit        = 2.00000 (deg) 
          receiving slit      = 0.15000 (mm)  
    Scanning
          drive axis          = Theta-2Theta 
          scan range          =    4.000 -   65.000 
          scan mode           = Continuous Scan 
          scan speed          =   2.0000 (deg/min) 
          sampling pitch      =   0.0200 (deg) 
          preset time         =   0.60 (sec) 

# Data      [ Total No. = 3051 ]
  <2Theta>   <   I   >
     4.0000       236
     4.0200       260
     4.0400       280
     4.0600       232
     4.0800       244
     4.1000       244
     4.1200       258
     4.1400       216
     4.1600       234
     4.1800       202
     4.2000       222
     4.2200       244
     4.2400       228
     4.2600       252
     4.2800       220
     4.3000       218
     4.3200       240
     4.3400       210
     4.3600       244
     4.3800       220
     4.4000       216
     4.4200       238
     4.4400       202
     4.4600       208
     4.4800       214
     4.5000       188
     4.5200       210
     4.5400       212
     4.5600       230
     4.5800       242
     4.6000       272
     4.6200       226
     4.6400       232
     4.6600       220
     4.6800       230
     4.7000       210
     4.7200       216
     4.7400       208
     4.7600       238
     4.7800       212
     4.8000       206
     4.8200       204
     4.8400       200
     4.8600       196
     4.8800       190
     4.9000       202
     4.9200       206
     4.9400       208
     4.9600       214
     4.9800       212
     5.0000       224
     5.0200       212
     5.0400       194
     5.0600       190
     5.0800       202
     5.1000       208
     5.1200       204
     5.1400       208
     5.1600       190
     5.1800       202
     5.2000       202
     5.2200       228
     5.2400       208
     5.2600       210
     5.2800       194
     5.3000       208
     5.3200       200
     5.3400       198
     5.3600       202
     5.3800       178
     5.4000       204
     5.4200       212
     5.4400       194
     5.4600       198
     5.4800       228
     5.5000       224
     5.5200       224
     5.5400       218
     5.5600       210
     5.5800       206
     5.6000       188
     5.6200       202
     5.6400       202
     5.6600       208
     5.6800       192
     5.7000       196
     5.7200       178
     5.7400       206
     5.7600       204
     5.7800       196
     5.8000       232
     5.8200       194
     5.8400       178
     5.8600       180
     5.8800       206
     5.9000       214
     5.9200       184
     5.9400       196
     5.9600       214
     5.9800       200
     6.0000       204
     6.0200       192
     6.0400       232
     6.0600       222
     6.0800       194
     6.1000       186
     6.1200       192
     6.1400       220
     6.1600       168
     6.1800       172
     6.2000       198
     6.2200       202
     6.2400       216
     6.2600       206
     6.2800       190
     6.3000       212
     6.3200       204
     6.3400       210
     6.3600       218
     6.3800       212
     6.4000       164
     6.4200       194
     6.4400       194
     6.4600       192
     6.4800       168
     6.5000       192
     6.5200       208
     6.5400       180
     6.5600       180
     6.5800       168
     6.6000       182
     6.6200       172
     6.6400       192
     6.6600       202
     6.6800       206
     6.7000       188
     6.7200       194
     6.7400       154
     6.7600       190
     6.7800       168
     6.8000       182
     6.8200       170
     6.8400       174
     6.8600       158
     6.8800       166
     6.9000       188
     6.9200       204
     6.9400       168
     6.9600       180
     6.9800       192
     7.0000       158
     7.0200       174
     7.0400       188
     7.0600       158
     7.0800       142
     7.1000       170
     7.1200       198
     7.1400       152
     7.1600       172
     7.1800       154
     7.2000       158
     7.2200       150
     7.2400       170
     7.2600       176
     7.2800       152
     7.3000       164
     7.3200       134
     7.3400       150
     7.3600       172
     7.3800       164
     7.4000       144
     7.4200       156
     7.4400       162
     7.4600       164
     7.4800       144
     7.5000       156
     7.5200       138
     7.5400       158
     7.5600       146
     7.5800       146
     7.6000       142
     7.6200       138
     7.6400       152
     7.6600       150
     7.6800       170
     7.7000       154
     7.7200       128
     7.7400       160
     7.7600       144
     7.7800       124
     7.8000       172
     7.8200       154
     7.8400       144
     7.8600       160
     7.8800       138
     7.9000       126
     7.9200       144
     7.9400       108
     7.9600       144
     7.9800       148
     8.0000       172
     8.0200       150
     8.0400       168
     8.0600       136
     8.0800       146
     8.1000       132
     8.1200       130
     8.1400       126
     8.1600       130
     8.1800       154
     8.2000       102
     8.2200       140
     8.2400       150
     8.2600       148
     8.2800       152
     8.3000       150
     8.3200       154
     8.3400       142
     8.3600       142
     8.3800       156
     8.4000       154
     8.4200       156
     8.4400       148
     8.4600       164
     8.4800       146
     8.5000       166
     8.5200       124
     8.5400       142
     8.5600       128
     8.5800       134
     8.6000       140
     8.6200       122
     8.6400       160
     8.6600       144
     8.6800       138
     8.7000       142
     8.7200       160
     8.7400       144
     8.7600       156
     8.7800       152
     8.8000       146
     8.8200       142
     8.8400       110
     8.8600       134
     8.8800       154
     8.9000       146
     8.9200       138
     8.9400       142
     8.9600       158
     8.9800       130
     9.0000       144
     9.0200       146
     9.0400       144
     9.0600       140
     9.0800       122
     9.1000       156
     9.1200       154
     9.1400       114
     9.1600       156
     9.1800       146
     9.2000       132
     9.2200       146
     9.2400       132
     9.2600       138
     9.2800       124
     9.3000       134
     9.3200       140
     9.3400       152
     9.3600       126
     9.3800       132
     9.4000       118
     9.4200       120
     9.4400       124
     9.4600       114
     9.4800       114
     9.5000       116
     9.5200       122
     9.5400       142
     9.5600       132
     9.5800       110
     9.6000       140
     9.6200       124
     9.6400       124
     9.6600       130
     9.6800       110
     9.7000       126
     9.7200       128
     9.7400       134
     9.7600       108
     9.7800       110
     9.8000       122
     9.8200       116
     9.8400       134
     9.8600       142
     9.8800       120
     9.9000       112
     9.9200       120
     9.9400       120
     9.9600       132
     9.9800       126
    10.0000       104
    10.0200       122
    10.0400       128
    10.0600       130
    10.0800       124
    10.1000        86
    10.1200       114
    10.1400       132
    10.1600       124
    10.1800       118
    10.2000       112
    10.2200       108
    10.2400        98
    10.2600        98
    10.2800       142
    10.3000       104
    10.3200       104
    10.3400       132
    10.3600       104
    10.3800       138
    10.4000       122
    10.4200       110
    10.4400       110
    10.4600       118
    10.4800       120
    10.5000       116
    10.5200       104
    10.5400       120
    10.5600       106
    10.5800       132
    10.6000        96
    10.6200       128
    10.6400       112
    10.6600       124
    10.6800       110
    10.7000       104
    10.7200       110
    10.7400       106
    10.7600       124
    10.7800        96
    10.8000       110
    10.8200       110
    10.8400       102
    10.8600       108
    10.8800       128
    10.9000       110
    10.9200       124
    10.9400       120
    10.9600       124
    10.9800        98
    11.0000       108
    11.0200       106
    11.0400       104
    11.0600       104
    11.0800        96
    11.1000       100
    11.1200       106
    11.1400        96
    11.1600        98
    11.1800       114
    11.2000        96
    11.2200       114
    11.2400       106
    11.2600       106
    11.2800       122
    11.3000        92
    11.3200        98
    11.3400       102
    11.3600       112
    11.3800       104
    11.4000        76
    11.4200        92
    11.4400        94
    11.4600        74
    11.4800        88
    11.5000       104
    11.5200       104
    11.5400       114
    11.5600       102
    11.5800        74
    11.6000        96
    11.6200        98
    11.6400        84
    11.6600        88
    11.6800       100
    11.7000       104
    11.7200        92
    11.7400        90
    11.7600        90
    11.7800       106
    11.8000       110
    11.8200       106
    11.8400        94
    11.8600        72
    11.8800        90
    11.9000        94
    11.9200       106
    11.9400       110
    11.9600       114
    11.9800       108
    12.0000       106
    12.0200        92
    12.0400       104
    12.0600        88
    12.0800        96
    12.1000       112
    12.1200        88
    12.1400        82
    12.1600        90
    12.1800        86
    12.2000       100
    12.2200        96
    12.2400        96
    12.2600       104
    12.2800       112
    12.3000       104
    12.3200        90
    12.3400        86
    12.3600       104
    12.3800        94
    12.4000       100
    12.4200        98
    12.4400        74
    12.4600       116
    12.4800        86
    12.5000        98
    12.5200        96
    12.5400        78
    12.5600        96
    12.5800        94
    12.6000        90
    12.6200        92
    12.6400        80
    12.6600        94
    12.6800        78
    12.7000        58
    12.7200        86
    12.7400        78
    12.7600        76
    12.7800        94
    12.8000        98
    12.8200        84
    12.8400        90
    12.8600       122
    12.8800        86
    12.9000        90
    12.9200        78
    12.9400        78
    12.9600        76
    12.9800        82
    13.0000        84
    13.0200        78
    13.0400        88
    13.0600        86
    13.0800        94
    13.1000        96
    13.1200        82
    13.1400        90
    13.1600        78
    13.1800        98
    13.2000        88
    13.2200        84
    13.2400        70
    13.2600        66
    13.2800        86
    13.3000        80
    13.3200        82
    13.3400        76
    13.3600        76
    13.3800        66
    13.4000        94
    13.4200        88
    13.4400        88
    13.4600        94
    13.4800        90
    13.5000        70
    13.5200        82
    13.5400       100
    13.5600        76
    13.5800        84
    13.6000        76
    13.6200        76
    13.6400        80
    13.6600        94
    13.6800        78
    13.7000        96
    13.7200        72
    13.7400        70
    13.7600        74
    13.7800        58
    13.8000        82
    13.8200        90
    13.8400        82
    13.8600        82
    13.8800        74
    13.9000        86
    13.9200        82
    13.9400        74
    13.9600        86
    13.9800        84
    14.0000        74
    14.0200        90
    14.0400        80
    14.0600        74
    14.0800        86
    14.1000        86
    14.1200       100
    14.1400        76
    14.1600        72
    14.1800        82
    14.2000        92
    14.2200        70
    14.2400        88
    14.2600        64
    14.2800        68
    14.3000        78
    14.3200       110
    14.3400        80
    14.3600        88
    14.3800        88
    14.4000        76
    14.4200       100
    14.4400        82
    14.4600        74
    14.4800        74
    14.5000        84
    14.5200        78
    14.5400        96
    14.5600        74
    14.5800        90
    14.6000        84
    14.6200        98
    14.6400        92
    14.6600        88
    14.6800        82
    14.7000       100
    14.7200        76
    14.7400        72
    14.7600        72
    14.7800        96
    14.8000        70
    14.8200        86
    14.8400        92
    14.8600        68
    14.8800        84
    14.9000        96
    14.9200        76
    14.9400        80
    14.9600        82
    14.9800        88
    15.0000        96
    15.0200        70
    15.0400        76
    15.0600        82
    15.0800        90
    15.1000        70
    15.1200        96
    15.1400        90
    15.1600        74
    15.1800       102
    15.2000        90
    15.2200        92
    15.2400        74
    15.2600        74
    15.2800        84
    15.3000        86
    15.3200        86
    15.3400        76
    15.3600        84
    15.3800        90
    15.4000        76
    15.4200        86
    15.4400        68
    15.4600        68
    15.4800        78
    15.5000        88
    15.5200        74
    15.5400        82
    15.5600        76
    15.5800        76
    15.6000        80
    15.6200        82
    15.6400        98
    15.6600        74
    15.6800        90
    15.7000        86
    15.7200        90
    15.7400        56
    15.7600        86
    15.7800        92
    15.8000        78
    15.8200        88
    15.8400        84
    15.8600        74
    15.8800        80
    15.9000        78
    15.9200        86
    15.9400        84
    15.9600        90
    15.9800        70
    16.0000        92
    16.0200        70
    16.0400       100
    16.0600        92
    16.0800       100
    16.1000       112
    16.1200       104
    16.1400        74
    16.1600        90
    16.1800        78
    16.2000        74
    16.2200        72
    16.2400        86
    16.2600        96
    16.2800        82
    16.3000        70
    16.3200        86
    16.3400        72
    16.3600        76
    16.3800        70
    16.4000        74
    16.4200        86
    16.4400        80
    16.4600        96
    16.4800        96
    16.5000        72
    16.5200        86
    16.5400        82
    16.5600        88
    16.5800        94
    16.6000       106
    16.6200        70
    16.6400        78
    16.6600        82
    16.6800        74
    16.7000        84
    16.7200        78
    16.7400        82
    16.7600        90
    16.7800        78
    16.8000        84
    16.8200        90
    16.8400        90
    16.8600        90
    16.8800        98
    16.9000        76
    16.9200        82
    16.9400        88
    16.9600        84
    16.9800        84
    17.0000       104
    17.0200       100
    17.0400        92
    17.0600       104
    17.0800       102
    17.1000        80
    17.1200        96
    17.1400        86
    17.1600        84
    17.1800        80
    17.2000        96
    17.2200        80
    17.2400       114
    17.2600        96
    17.2800       126
    17.3000        84
    17.3200        78
    17.3400        82
    17.3600        86
    17.3800        78
    17.4000       112
    17.4200        86
    17.4400       106
    17.4600        94
    17.4800        92
    17.5000        92
    17.5200       100
    17.5400        82
    17.5600        98
    17.5800       102
    17.6000        92
    17.6200       102
    17.6400        88
    17.6600       104
    17.6800        86
    17.7000        90
    17.7200       110
    17.7400       108
    17.7600       114
    17.7800        94
    17.8000       108
    17.8200       116
    17.8400        88
    17.8600        92
    17.8800        94
    17.9000        92
    17.9200        98
    17.9400        96
    17.9600        96
    17.9800        96
    18.0000       102
    18.0200       114
    18.0400        88
    18.0600       116
    18.0800       130
    18.1000       106
    18.1200        94
    18.1400       102
    18.1600        94
    18.1800        92
    18.2000       118
    18.2200       122
    18.2400       114
    18.2600        88
    18.2800       104
    18.3000        90
    18.3200       114
    18.3400       104
    18.3600       114
    18.3800       108
    18.4000       100
    18.4200       104
    18.4400       110
    18.4600       104
    18.4800        98
    18.5000       108
    18.5200       108
    18.5400       102
    18.5600       106
    18.5800        96
    18.6000       120
    18.6200       106
    18.6400       126
    18.6600       114
    18.6800       114
    18.7000       116
    18.7200       132
    18.7400       104
    18.7600       114
    18.7800       142
    18.8000       120
    18.8200       106
    18.8400       136
    18.8600       114
    18.8800       116
    18.9000       120
    18.9200       118
    18.9400       144
    18.9600       110
    18.9800       134
    19.0000       108
    19.0200       110
    19.0400       126
    19.0600       146
    19.0800       130
    19.1000       124
    19.1200       128
    19.1400       128
    19.1600       144
    19.1800       132
    19.2000       146
    19.2200       142
    19.2400       134
    19.2600       138
    19.2800       144
    19.3000       146
    19.3200       154
    19.3400       158
    19.3600       116
    19.3800       138
    19.4000       166
    19.4200       158
    19.4400       148
    19.4600       152
    19.4800       158
    19.5000       132
    19.5200       154
    19.5400       156
    19.5600       156
    19.5800       168
    19.6000       164
    19.6200       130
    19.6400       146
    19.6600       174
    19.6800       162
    19.7000       134
    19.7200       146
    19.7400       156
    19.7600       130
    19.7800       168
    19.8000       184
    19.8200       166
    19.8400       150
    19.8600       146
    19.8800       152
    19.9000       168
    19.9200       138
    19.9400       158
    19.9600       136
    19.9800       132
    20.0000       150
    20.0200       158
    20.0400       124
    20.0600       130
    20.0800       158
    20.1000       156
    20.1200       164
    20.1400       186
    20.1600       172
    20.1800       136
    20.2000       144
    20.2200       174
    20.2400       164
    20.2600       156
    20.2800       154
    20.3000       156
    20.3200       152
    20.3400       150
    20.3600       148
    20.3800       166
    20.4000       142
    20.4200       160
    20.4400       158
    20.4600       164
    20.4800       178
    20.5000       160
    20.5200       164
    20.5400       150
    20.5600       140
    20.5800       164
    20.6000       166
    20.6200       156
    20.6400       154
    20.6600       158
    20.6800       144
    20.7000       190
    20.7200       184
    20.7400       158
    20.7600       138
    20.7800       168
    20.8000       150
    20.8200       164
    20.8400       164
    20.8600       158
    20.8800       148
    20.9000       188
    20.9200       166
    20.9400       170
    20.9600       186
    20.9800       178
    21.0000       170
    21.0200       160
    21.0400       174
    21.0600       182
    21.0800       172
    21.1000       156
    21.1200       182
    21.1400       180
    21.1600       166
    21.1800       166
    21.2000       160
    21.2200       162
    21.2400       178
    21.2600       154
    21.2800       184
    21.3000       194
    21.3200       170
    21.3400       182
    21.3600       160
    21.3800       150
    21.4000       172
    21.4200       148
    21.4400       174
    21.4600       164
    21.4800       158
    21.5000       180
    21.5200       180
    21.5400       160
    21.5600       190
    21.5800       166
    21.6000       166
    21.6200       176
    21.6400       164
    21.6600       154
    21.6800       190
    21.7000       174
    21.7200       174
    21.7400       160
    21.7600       148
    21.7800       190
    21.8000       166
    21.8200       172
    21.8400       186
    21.8600       160
    21.8800       194
    21.9000       144
    21.9200       160
    21.9400       170
    21.9600       146
    21.9800       166
    22.0000       170
    22.0200       162
    22.0400       186
    22.0600       160
    22.0800       184
    22.1000       202
    22.1200       164
    22.1400       182
    22.1600       174
    22.1800       174
    22.2000       156
    22.2200       146
    22.2400       172
    22.2600       180
    22.2800       168
    22.3000       172
    22.3200       138
    22.3400       168
    22.3600       144
    22.3800       168
    22.4000       160
    22.4200       146
    22.4400       158
    22.4600       136
    22.4800       144
    22.5000       168
    22.5200       150
    22.5400       206
    22.5600       168
    22.5800       160
    22.6000       170
    22.6200       152
    22.6400       148
    22.6600       170
    22.6800       152
    22.7000       152
    22.7200       162
    22.7400       156
    22.7600       156
    22.7800       164
    22.8000       152
    22.8200       146
    22.8400       150
    22.8600       156
    22.8800       154
    22.9000       160
    22.9200       164
    22.9400       164
    22.9600       176
    22.9800       188
    23.0000       164
    23.0200       146
    23.0400       150
    23.0600       144
    23.0800       136
    23.1000       156
    23.1200       158
    23.1400       164
    23.1600       126
    23.1800       174
    23.2000       172
    23.2200       134
    23.2400       160
    23.2600       150
    23.2800       148
    23.3000       144
    23.3200       170
    23.3400       138
    23.3600       162
    23.3800       132
    23.4000       136
    23.4200       172
    23.4400       172
    23.4600       162
    23.4800       128
    23.5000       144
    23.5200       144
    23.5400       154
    23.5600       158
    23.5800       146
    23.6000       152
    23.6200       138
    23.6400       142
    23.6600       138
    23.6800       146
    23.7000       152
    23.7200       124
    23.7400       144
    23.7600       156
    23.7800       128
    23.8000       138
    23.8200       140
    23.8400       136
    23.8600       134
    23.8800       122
    23.9000       132
    23.9200       134
    23.9400       122
    23.9600       146
    23.9800       154
    24.0000       134
    24.0200       138
    24.0400       144
    24.0600       134
    24.0800       130
    24.1000       152
    24.1200       138
    24.1400       152
    24.1600       124
    24.1800       160
    24.2000       124
    24.2200       158
    24.2400       118
    24.2600       128
    24.2800       144
    24.3000       136
    24.3200       156
    24.3400       152
    24.3600       134
    24.3800       148
    24.4000       122
    24.4200       136
    24.4400       122
    24.4600       108
    24.4800       122
    24.5000       132
    24.5200       152
    24.5400       134
    24.5600       114
    24.5800       130
    24.6000       150
    24.6200       150
    24.6400       120
    24.6600       130
    24.6800       120
    24.7000       150
    24.7200       146
    24.7400       140
    24.7600       130
    24.7800       116
    24.8000       124
    24.8200       138
    24.8400       124
    24.8600       130
    24.8800       136
    24.9000       128
    24.9200       110
    24.9400       136
    24.9600       142
    24.9800       130
    25.0000       154
    25.0200       152
    25.0400       154
    25.0600       120
    25.0800       134
    25.1000       144
    25.1200       122
    25.1400       122
    25.1600       132
    25.1800       140
    25.2000       138
    25.2200       118
    25.2400       104
    25.2600       114
    25.2800       112
    25.3000       112
    25.3200       108
    25.3400       118
    25.3600        98
    25.3800       120
    25.4000       118
    25.4200       114
    25.4400       112
    25.4600        94
    25.4800       110
    25.5000       104
    25.5200       116
    25.5400       112
    25.5600       126
    25.5800       124
    25.6000       106
    25.6200       122
    25.6400       128
    25.6600       106
    25.6800       108
    25.7000       106
    25.7200       114
    25.7400       144
    25.7600       102
    25.7800       118
    25.8000        98
    25.8200       138
    25.8400       110
    25.8600       120
    25.8800       104
    25.9000       108
    25.9200        98
    25.9400        96
    25.9600       122
    25.9800        92
    26.0000        92
    26.0200       110
    26.0400       114
    26.0600       104
    26.0800       118
    26.1000       100
    26.1200       114
    26.1400       126
    26.1600       114
    26.1800       114
    26.2000       110
    26.2200       134
    26.2400       108
    26.2600       100
    26.2800        90
    26.3000       112
    26.3200        94
    26.3400       100
    26.3600       118
    26.3800       110
    26.4000       106
    26.4200        96
    26.4400       112
    26.4600       118
    26.4800        98
    26.5000       100
    26.5200       106
    26.5400       112
    26.5600       110
    26.5800       118
    26.6000        94
    26.6200       108
    26.6400       110
    26.6600        96
    26.6800        96
    26.7000        80
    26.7200       124
    26.7400       106
    26.7600       112
    26.7800       112
    26.8000       110
    26.8200        84
    26.8400        98
    26.8600       100
    26.8800       100
    26.9000        92
    26.9200        98
    26.9400       100
    26.9600        76
    26.9800       104
    27.0000       116
    27.0200       110
    27.0400       124
    27.0600       100
    27.0800       112
    27.1000       102
    27.1200       124
    27.1400       112
    27.1600       116
    27.1800        90
    27.2000       110
    27.2200       104
    27.2400       104
    27.2600       106
    27.2800        92
    27.3000       110
    27.3200        88
    27.3400       104
    27.3600       112
    27.3800        94
    27.4000       110
    27.4200        88
    27.4400        92
    27.4600        86
    27.4800       108
    27.5000        82
    27.5200        92
    27.5400        94
    27.5600        92
    27.5800       122
    27.6000       110
    27.6200        82
    27.6400       108
    27.6600        92
    27.6800       100
    27.7000       112
    27.7200       112
    27.7400       110
    27.7600        98
    27.7800       114
    27.8000       102
    27.8200        94
    27.8400        88
    27.8600        96
    27.8800        98
    27.9000       114
    27.9200       172
    27.9400       176
    27.9600       162
    27.9800       162
    28.0000       154
    28.0200       126
    28.0400       130
    28.0600       118
    28.0800       116
    28.1000        98
    28.1200       126
    28.1400       112
    28.1600        94
    28.1800       116
    28.2000       100
    28.2200        86
    28.2400        90
    28.2600        98
    28.2800        96
    28.3000        92
    28.3200        94
    28.3400        72
    28.3600        86
    28.3800        90
    28.4000        88
    28.4200        88
    28.4400        94
    28.4600        90
    28.4800       102
    28.5000       100
    28.5200        76
    28.5400        78
    28.5600        86
    28.5800       108
    28.6000        82
    28.6200        96
    28.6400        84
    28.6600       110
    28.6800        90
    28.7000        68
    28.7200       100
    28.7400        94
    28.7600        98
    28.7800        96
    28.8000        86
    28.8200       100
    28.8400        82
    28.8600        86
    28.8800        86
    28.9000        72
    28.9200        90
    28.9400        84
    28.9600        78
    28.9800        86
    29.0000        88
    29.0200        96
    29.0400        96
    29.0600        84
    29.0800        82
    29.1000        84
    29.1200        72
    29.1400        90
    29.1600        80
    29.1800        90
    29.2000        90
    29.2200       102
    29.2400       112
    29.2600       106
    29.2800        92
    29.3000        90
    29.3200        94
    29.3400        90
    29.3600        78
    29.3800        88
    29.4000        84
    29.4200        86
    29.4400        74
    29.4600        80
    29.4800        66
    29.5000        74
    29.5200        82
    29.5400        90
    29.5600        80
    29.5800        74
    29.6000        78
    29.6200        84
    29.6400        98
    29.6600        94
    29.6800        76
    29.7000        90
    29.7200        80
    29.7400        82
    29.7600        84
    29.7800        80
    29.8000        84
    29.8200        98
    29.8400        86
    29.8600        74
    29.8800        70
    29.9000        78
    29.9200        72
    29.9400        90
    29.9600        54
    29.9800        74
    30.0000        76
    30.0200        82
    30.0400        54
    30.0600        84
    30.0800        80
    30.1000        86
    30.1200        72
    30.1400        58
    30.1600        72
    30.1800        72
    30.2000        76
    30.2200        98
    30.2400        74
    30.2600        88
    30.2800        90
    30.3000        88
    30.3200        70
    30.3400        76
    30.3600        86
    30.3800        78
    30.4000        80
    30.4200        86
    30.4400        76
    30.4600        86
    30.4800        82
    30.5000        74
    30.5200        86
    30.5400        88
    30.5600        88
    30.5800        82
    30.6000        84
    30.6200        78
    30.6400        84
    30.6600        76
    30.6800        70
    30.7000        84
    30.7200        80
    30.7400        62
    30.7600        78
    30.7800        76
    30.8000        86
    30.8200        78
    30.8400       102
    30.8600        92
    30.8800        86
    30.9000        84
    30.9200        80
    30.9400        96
    30.9600        84
    30.9800       110
    31.0000        84
    31.0200        96
    31.0400        98
    31.0600        78
    31.0800        94
    31.1000       108
    31.1200        92
    31.1400       108
    31.1600       106
    31.1800        90
    31.2000        80
    31.2200        82
    31.2400        84
    31.2600        78
    31.2800       102
    31.3000        90
    31.3200        74
    31.3400        92
    31.3600        86
    31.3800        84
    31.4000        94
    31.4200        98
    31.4400        92
    31.4600        88
    31.4800        98
    31.5000        78
    31.5200        86
    31.5400        88
    31.5600       110
    31.5800        94
    31.6000       100
    31.6200       114
    31.6400       100
    31.6600       102
    31.6800       108
    31.7000       102
    31.7200       108
    31.7400        92
    31.7600       114
    31.7800        92
    31.8000       104
    31.8200       114
    31.8400        92
    31.8600       118
    31.8800       116
    31.9000       114
    31.9200       120
    31.9400       128
    31.9600       118
    31.9800       128
    32.0000       140
    32.0200       144
    32.0400       176
    32.0600       188
    32.0800       208
    32.1000       188
    32.1200       232
    32.1400       270
    32.1600       280
    32.1800       306
    32.2000       420
    32.2200       406
    32.2400       500
    32.2600       558
    32.2800       688
    32.3000       774
    32.3200      1040
    32.3400      1230
    32.3600      1502
    32.3800      1760
    32.4000      2162
    32.4200      2432
    32.4400      2846
    32.4600      3232
    32.4800      3472
    32.5000      3602
    32.5200      3502
    32.5400      3284
    32.5600      2948
    32.5800      2382
    32.6000      2010
    32.6200      1616
    32.6400      1192
    32.6600       910
    32.6800       692
    32.7000       470
    32.7200       376
    32.7400       268
    32.7600       286
    32.7800       226
    32.8000       222
    32.8200       160
    32.8400       160
    32.8600       160
    32.8800       134
    32.9000       120
    32.9200       124
    32.9400       110
    32.9600       108
    32.9800       110
    33.0000       122
    33.0200       108
    33.0400       108
    33.0600       116
    33.0800       108
    33.1000        76
    33.1200        98
    33.1400        98
    33.1600        92
    33.1800        94
    33.2000       106
    33.2200       110
    33.2400        98
    33.2600        74
    33.2800        96
    33.3000        84
    33.3200        72
    33.3400        94
    33.3600        80
    33.3800        84
    33.4000        88
    33.4200        90
    33.4400        86
    33.4600        66
    33.4800        94
    33.5000        96
    33.5200        80
    33.5400        80
    33.5600        70
    33.5800        84
    33.6000        80
    33.6200        96
    33.6400        60
    33.6600        72
    33.6800        78
    33.7000        86
    33.7200        86
    33.7400        92
    33.7600        84
    33.7800        78
    33.8000        84
    33.8200        90
    33.8400        88
    33.8600        80
    33.8800        88
    33.9000        84
    33.9200       112
    33.9400        96
    33.9600        92
    33.9800        94
    34.0000        86
    34.0200        82
    34.0400        76
    34.0600       102
    34.0800        92
    34.1000        96
    34.1200       130
    34.1400        86
    34.1600        92
    34.1800        94
    34.2000        98
    34.2200        86
    34.2400        80
    34.2600        86
    34.2800        90
    34.3000        90
    34.3200       110
    34.3400        88
    34.3600        84
    34.3800       102
    34.4000       100
    34.4200       102
    34.4400        84
    34.4600        96
    34.4800        90
    34.5000        94
    34.5200       110
    34.5400       108
    34.5600        94
    34.5800        96
    34.6000        98
    34.6200        90
    34.6400        88
    34.6600        78
    34.6800       104
    34.7000       100
    34.7200        94
    34.7400        88
    34.7600        96
    34.7800        82
    34.8000        96
    34.8200        72
    34.8400        80
    34.8600       108
    34.8800       104
    34.9000        98
    34.9200        98
    34.9400        90
    34.9600        98
    34.9800        94
    35.0000        84
    35.0200       114
    35.0400        88
    35.0600        82
    35.0800        94
    35.1000        98
    35.1200        88
    35.1400        86
    35.1600       108
    35.1800       100
    35.2000       100
    35.2200       112
    35.2400        92
    35.2600       126
    35.2800       110
    35.3000        96
    35.3200       108
    35.3400       122
    35.3600       102
    35.3800       118
    35.4000       132
    35.4200       142
    35.4400       134
    35.4600       166
    35.4800       182
    35.5000       180
    35.5200       168
    35.5400       234
    35.5600       248
    35.5800       318
    35.6000       354
    35.6200       386
    35.6400       450
    35.6600       488
    35.6800       602
    35.7000       606
    35.7200       580
    35.7400       642
    35.7600       616
    35.7800       534
    35.8000       396
    35.8200       398
    35.8400       282
    35.8600       268
    35.8800       230
    35.9000       178
    35.9200       156
    35.9400       148
    35.9600       126
    35.9800       110
    36.0000       102
    36.0200       100
    36.0400       118
    36.0600        98
    36.0800       104
    36.1000       102
    36.1200        94
    36.1400        88
    36.1600       104
    36.1800        90
    36.2000        88
    36.2200        60
    36.2400        88
    36.2600        86
    36.2800        68
    36.3000        70
    36.3200        86
    36.3400        88
    36.3600        94
    36.3800        84
    36.4000        98
    36.4200        86
    36.4400       122
    36.4600        86
    36.4800        88
    36.5000        72
    36.5200        74
    36.5400        80
    36.5600        72
    36.5800        74
    36.6000        88
    36.6200        82
    36.6400        70
    36.6600        92
    36.6800        72
    36.7000        86
    36.7200        76
    36.7400        74
    36.7600        78
    36.7800        62
    36.8000        86
    36.8200        66
    36.8400        74
    36.8600        78
    36.8800        92
    36.9000        68
    36.9200        68
    36.9400        84
    36.9600        66
    36.9800        76
    37.0000        96
    37.0200        56
    37.0400        48
    37.0600        70
    37.0800        68
    37.1000        70
    37.1200        62
    37.1400        70
    37.1600        72
    37.1800        68
    37.2000        80
    37.2200        78
    37.2400        80
    37.2600        62
    37.2800        70
    37.3000        64
    37.3200        58
    37.3400        92
    37.3600        72
    37.3800        80
    37.4000        68
    37.4200        72
    37.4400        82
    37.4600        58
    37.4800        58
    37.5000        66
    37.5200        82
    37.5400        74
    37.5600        56
    37.5800        62
    37.6000        64
    37.6200        56
    37.6400        74
    37.6600        64
    37.6800        68
    37.7000        62
    37.7200        60
    37.7400        62
    37.7600        56
    37.7800        74
    37.8000        54
    37.8200        68
    37.8400        66
    37.8600        74
    37.8800        50
    37.9000        74
    37.9200        48
    37.9400        72
    37.9600        68
    37.9800        66
    38.0000        70
    38.0200        60
    38.0400        60
    38.0600        66
    38.0800        70
    38.1000        64
    38.1200        66
    38.1400        74
    38.1600        66
    38.1800        68
    38.2000        66
    38.2200        72
    38.2400        68
    38.2600        72
    38.2800        70
    38.3000        66
    38.3200        92
    38.3400        66
    38.3600        78
    38.3800        86
    38.4000        82
    38.4200        86
    38.4400        86
    38.4600        90
    38.4800       120
    38.5000       108
    38.5200       120
    38.5400       136
    38.5600       134
    38.5800       166
    38.6000       164
    38.6200       210
    38.6400       208
    38.6600       214
    38.6800       262
    38.7000       250
    38.7200       220
    38.7400       216
    38.7600       214
    38.7800       178
    38.8000       178
    38.8200       132
    38.8400       122
    38.8600       128
    38.8800        82
    38.9000        92
    38.9200        84
    38.9400        74
    38.9600        68
    38.9800        70
    39.0000        72
    39.0200        76
    39.0400        82
    39.0600        80
    39.0800        74
    39.1000        62
    39.1200        72
    39.1400        72
    39.1600        66
    39.1800        70
    39.2000        62
    39.2200        54
    39.2400        74
    39.2600        80
    39.2800        72
    39.3000        74
    39.3200        70
    39.3400        72
    39.3600        74
    39.3800        70
    39.4000        64
    39.4200        62
    39.4400        62
    39.4600        78
    39.4800        70
    39.5000        54
    39.5200        58
    39.5400        64
    39.5600        68
    39.5800        64
    39.6000        80
    39.6200        62
    39.6400        68
    39.6600        74
    39.6800        62
    39.7000        50
    39.7200        60
    39.7400        42
    39.7600        76
    39.7800        66
    39.8000        70
    39.8200        64
    39.8400        66
    39.8600        70
    39.8800        86
    39.9000        52
    39.9200        58
    39.9400        66
    39.9600        66
    39.9800        76
    40.0000        52
    40.0200        68
    40.0400        60
    40.0600        64
    40.0800        78
    40.1000        60
    40.1200        58
    40.1400        56
    40.1600        66
    40.1800        52
    40.2000        58
    40.2200        58
    40.2400        80
    40.2600        54
    40.2800        60
    40.3000        66
    40.3200        58
    40.3400        64
    40.3600        54
    40.3800        60
    40.4000        68
    40.4200        70
    40.4400        54
    40.4600        62
    40.4800        48
    40.5000        70
    40.5200        64
    40.5400        62
    40.5600        60
    40.5800        64
    40.6000        60
    40.6200        58
    40.6400        70
    40.6600        58
    40.6800        72
    40.7000        56
    40.7200        60
    40.7400        60
    40.7600        62
    40.7800        84
    40.8000        74
    40.8200        66
    40.8400        80
    40.8600        66
    40.8800        62
    40.9000        56
    40.9200        56
    40.9400        86
    40.9600        52
    40.9800        72
    41.0000        70
    41.0200        78
    41.0400        58
    41.0600        70
    41.0800        50
    41.1000        74
    41.1200        78
    41.1400        54
    41.1600        64
    41.1800        54
    41.2000        64
    41.2200        78
    41.2400        68
    41.2600        60
    41.2800        62
    41.3000        52
    41.3200        62
    41.3400        58
    41.3600        56
    41.3800        74
    41.4000        72
    41.4200        78
    41.4400        70
    41.4600        70
    41.4800        64
    41.5000        70
    41.5200        64
    41.5400        60
    41.5600        72
    41.5800        48
    41.6000        64
    41.6200        56
    41.6400        60
    41.6600        62
    41.6800        74
    41.7000        60
    41.7200        70
    41.7400        74
    41.7600        62
    41.7800        58
    41.8000        78
    41.8200        66
    41.8400        72
    41.8600        52
    41.8800        78
    41.9000        84
    41.9200        74
    41.9400        76
    41.9600        76
    41.9800        66
    42.0000        74
    42.0200        90
    42.0400        62
    42.0600        66
    42.0800        62
    42.1000        78
    42.1200        80
    42.1400        66
    42.1600        66
    42.1800        88
    42.2000        82
    42.2200        88
    42.2400        72
    42.2600        96
    42.2800        90
    42.3000        92
    42.3200        86
    42.3400        84
    42.3600       102
    42.3800        98
    42.4000       124
    42.4200       114
    42.4400       122
    42.4600       148
    42.4800       152
    42.5000       166
    42.5200       228
    42.5400       234
    42.5600       292
    42.5800       282
    42.6000       318
    42.6200       364
    42.6400       476
    42.6600       552
    42.6800       678
    42.7000       794
    42.7200       978
    42.7400      1210
    42.7600      1382
    42.7800      1542
    42.8000      1740
    42.8200      1852
    42.8400      2016
    42.8600      1888
    42.8800      1764
    42.9000      1590
    42.9200      1346
    42.9400      1200
    42.9600      1034
    42.9800       856
    43.0000       678
    43.0200       574
    43.0400       430
    43.0600       318
    43.0800       252
    43.1000       198
    43.1200       188
    43.1400       160
    43.1600       150
    43.1800       116
    43.2000       130
    43.2200       110
    43.2400       110
    43.2600       112
    43.2800        86
    43.3000        78
    43.3200        84
    43.3400        74
    43.3600        78
    43.3800        74
    43.4000        72
    43.4200        82
    43.4400        70
    43.4600        62
    43.4800        64
    43.5000        82
    43.5200        54
    43.5400        74
    43.5600        60
    43.5800        62
    43.6000        62
    43.6200        62
    43.6400        64
    43.6600        62
    43.6800        82
    43.7000        66
    43.7200        54
    43.7400        58
    43.7600        60
    43.7800        74
    43.8000        72
    43.8200        74
    43.8400        66
    43.8600        72
    43.8800        52
    43.9000        60
    43.9200        68
    43.9400        56
    43.9600        68
    43.9800        54
    44.0000        60
    44.0200        66
    44.0400        64
    44.0600        72
    44.0800        50
    44.1000        66
    44.1200        66
    44.1400        62
    44.1600        62
    44.1800        64
    44.2000        54
    44.2200        50
    44.2400        56
    44.2600        60
    44.2800        58
    44.3000        62
    44.3200        60
    44.3400        64
    44.3600        68
    44.3800        62
    44.4000        62
    44.4200        70
    44.4400        68
    44.4600        48
    44.4800        62
    44.5000        48
    44.5200        50
    44.5400        46
    44.5600        58
    44.5800        62
    44.6000        54
    44.6200        44
    44.6400        62
    44.6600        70
    44.6800        54
    44.7000        46
    44.7200        60
    44.7400        66
    44.7600        64
    44.7800        64
    44.8000        38
    44.8200        52
    44.8400        68
    44.8600        60
    44.8800        64
    44.9000        64
    44.9200        52
    44.9400        64
    44.9600        64
    44.9800        52
    45.0000        58
    45.0200        60
    45.0400        60
    45.0600        52
    45.0800        52
    45.1000        46
    45.1200        46
    45.1400        70
    45.1600        54
    45.1800        78
    45.2000        70
    45.2200        62
    45.2400        68
    45.2600        60
    45.2800        54
    45.3000        42
    45.3200        58
    45.3400        70
    45.3600        46
    45.3800        60
    45.4000        50
    45.4200        60
    45.4400        74
    45.4600        52
    45.4800        58
    45.5000        50
    45.5200        60
    45.5400        62
    45.5600        50
    45.5800        48
    45.6000        48
    45.6200        58
    45.6400        68
    45.6600        54
    45.6800        58
    45.7000        50
    45.7200        52
    45.7400        42
    45.7600        68
    45.7800        60
    45.8000        62
    45.8200        62
    45.8400        62
    45.8600        52
    45.8800        58
    45.9000        60
    45.9200        44
    45.9400        48
    45.9600        66
    45.9800        54
    46.0000        64
    46.0200        62
    46.0400        66
    46.0600        56
    46.0800        60
    46.1000        62
    46.1200        62
    46.1400        58
    46.1600        72
    46.1800        64
    46.2000        76
    46.2200        72
    46.2400        70
    46.2600        70
    46.2800        62
    46.3000        80
    46.3200        82
    46.3400        84
    46.3600        96
    46.3800        88
    46.4000        90
    46.4200       122
    46.4400       138
    46.4600       136
    46.4800       146
    46.5000       190
    46.5200       186
    46.5400       248
    46.5600       270
    46.5800       318
    46.6000       366
    46.6200       396
    46.6400       488
    46.6600       568
    46.6800       588
    46.7000       506
    46.7200       460
    46.7400       462
    46.7600       410
    46.7800       382
    46.8000       346
    46.8200       280
    46.8400       258
    46.8600       228
    46.8800       168
    46.9000       148
    46.9200       114
    46.9400       112
    46.9600       118
    46.9800        86
    47.0000        88
    47.0200        76
    47.0400        68
    47.0600        74
    47.0800        50
    47.1000        56
    47.1200        72
    47.1400        74
    47.1600        62
    47.1800        60
    47.2000        64
    47.2200        68
    47.2400        60
    47.2600        60
    47.2800        50
    47.3000        66
    47.3200        78
    47.3400        62
    47.3600        56
    47.3800        48
    47.4000        52
    47.4200        44
    47.4400        58
    47.4600        62
    47.4800        64
    47.5000        58
    47.5200        58
    47.5400        54
    47.5600        52
    47.5800        52
    47.6000        50
    47.6200        52
    47.6400        56
    47.6600        56
    47.6800        56
    47.7000        56
    47.7200        38
    47.7400        52
    47.7600        52
    47.7800        54
    47.8000        48
    47.8200        58
    47.8400        52
    47.8600        62
    47.8800        64
    47.9000        68
    47.9200        60
    47.9400        72
    47.9600        46
    47.9800        62
    48.0000        68
    48.0200        52
    48.0400        64
    48.0600        56
    48.0800        64
    48.1000        46
    48.1200        60
    48.1400        62
    48.1600        46
    48.1800        48
    48.2000        52
    48.2200        50
    48.2400        72
    48.2600        64
    48.2800        56
    48.3000        54
    48.3200        56
    48.3400        66
    48.3600        60
    48.3800        42
    48.4000        58
    48.4200        54
    48.4400        58
    48.4600        50
    48.4800        50
    48.5000        58
    48.5200        44
    48.5400        54
    48.5600        66
    48.5800        54
    48.6000        54
    48.6200        50
    48.6400        30
    48.6600        50
    48.6800        68
    48.7000        54
    48.7200        60
    48.7400        56
    48.7600        54
    48.7800        46
    48.8000        56
    48.8200        56
    48.8400        54
    48.8600        54
    48.8800        60
    48.9000        50
    48.9200        48
    48.9400        56
    48.9600        58
    48.9800        42
    49.0000        66
    49.0200        44
    49.0400        46
    49.0600        58
    49.0800        66
    49.1000        34
    49.1200        50
    49.1400        40
    49.1600        50
    49.1800        46
    49.2000        54
    49.2200        44
    49.2400        46
    49.2600        54
    49.2800        60
    49.3000        42
    49.3200        56
    49.3400        60
    49.3600        48
    49.3800        40
    49.4000        52
    49.4200        70
    49.4400        52
    49.4600        38
    49.4800        42
    49.5000        56
    49.5200        48
    49.5400        60
    49.5600        58
    49.5800        46
    49.6000        48
    49.6200        46
    49.6400        58
    49.6600        58
    49.6800        50
    49.7000        54
    49.7200        60
    49.7400        54
    49.7600        60
    49.7800        62
    49.8000        56
    49.8200        66
    49.8400        54
    49.8600        44
    49.8800        46
    49.9000        58
    49.9200        58
    49.9400        40
    49.9600        56
    49.9800        56
    50.0000        52
    50.0200        48
    50.0400        50
    50.0600        62
    50.0800        54
    50.1000        64
    50.1200        64
    50.1400        46
    50.1600        50
    50.1800        48
    50.2000        56
    50.2200        48
    50.2400        58
    50.2600        52
    50.2800        56
    50.3000        38
    50.3200        48
    50.3400        56
    50.3600        42
    50.3800        54
    50.4000        52
    50.4200        50
    50.4400        50
    50.4600        46
    50.4800        48
    50.5000        54
    50.5200        56
    50.5400        58
    50.5600        54
    50.5800        46
    50.6000        52
    50.6200        52
    50.6400        60
    50.6600        50
    50.6800        50
    50.7000        54
    50.7200        52
    50.7400        50
    50.7600        54
    50.7800        70
    50.8000        56
    50.8200        50
    50.8400        44
    50.8600        58
    50.8800        46
    50.9000        56
    50.9200        50
    50.9400        60
    50.9600        60
    50.9800        56
    51.0000        70
    51.0200        52
    51.0400        64
    51.0600        82
    51.0800        68
    51.1000        76
    51.1200        66
    51.1400        76
    51.1600        74
    51.1800        82
    51.2000        84
    51.2200        98
    51.2400        90
    51.2600        90
    51.2800       116
    51.3000       116
    51.3200       110
    51.3400       132
    51.3600       148
    51.3800       152
    51.4000       178
    51.4200       200
    51.4400       188
    51.4600       234
    51.4800       228
    51.5000       198
    51.5200       186
    51.5400       172
    51.5600       156
    51.5800       152
    51.6000       144
    51.6200       128
    51.6400       120
    51.6600       118
    51.6800       104
    51.7000       104
    51.7200        72
    51.7400        68
    51.7600        70
    51.7800        62
    51.8000        60
    51.8200        72
    51.8400        54
    51.8600        68
    51.8800        70
    51.9000        60
    51.9200        70
    51.9400        50
    51.9600        64
    51.9800        58
    52.0000        56
    52.0200        58
    52.0400        50
    52.0600        52
    52.0800        58
    52.1000        60
    52.1200        62
    52.1400        56
    52.1600        54
    52.1800        64
    52.2000        50
    52.2200        58
    52.2400        74
    52.2600        64
    52.2800        72
    52.3000        66
    52.3200        50
    52.3400        64
    52.3600        46
    52.3800        64
    52.4000        70
    52.4200        74
    52.4400        68
    52.4600        60
    52.4800        48
    52.5000        72
    52.5200        64
    52.5400        74
    52.5600        60
    52.5800        68
    52.6000        66
    52.6200        62
    52.6400        64
    52.6600        64
    52.6800        52
    52.7000        78
    52.7200        62
    52.7400        60
    52.7600        62
    52.7800        62
    52.8000        72
    52.8200        56
    52.8400        64
    52.8600        72
    52.8800        74
    52.9000        58
    52.9200        58
    52.9400        68
    52.9600        62
    52.9800        54
    53.0000        54
    53.0200        64
    53.0400        80
    53.0600        78
    53.0800        78
    53.1000        86
    53.1200        90
    53.1400        76
    53.1600        74
    53.1800        82
    53.2000        76
    53.2200        98
    53.2400       106
    53.2600        86
    53.2800       110
    53.3000       110
    53.3200       112
    53.3400       152
    53.3600       132
    53.3800       128
    53.4000       154
    53.4200       188
    53.4400       182
    53.4600       226
    53.4800       256
    53.5000       278
    53.5200       360
    53.5400       354
    53.5600       416
    53.5800       508
    53.6000       574
    53.6200       730
    53.6400       894
    53.6600      1010
    53.6800      1166
    53.7000      1220
    53.7200      1302
    53.7400      1354
    53.7600      1332
    53.7800      1262
    53.8000      1194
    53.8200      1006
    53.8400       920
    53.8600       836
    53.8800       738
    53.9000       728
    53.9200       602
    53.9400       500
    53.9600       406
    53.9800       312
    54.0000       224
    54.0200       180
    54.0400       182
    54.0600       172
    54.0800       138
    54.1000       116
    54.1200       136
    54.1400       112
    54.1600        94
    54.1800        94
    54.2000        96
    54.2200        76
    54.2400        82
    54.2600        78
    54.2800        76
    54.3000        96
    54.3200        70
    54.3400        60
    54.3600        78
    54.3800        78
    54.4000        64
    54.4200        78
    54.4400        66
    54.4600        62
    54.4800        54
    54.5000        64
    54.5200        66
    54.5400        66
    54.5600        70
    54.5800        56
    54.6000        68
    54.6200        58
    54.6400        60
    54.6600        74
    54.6800        60
    54.7000        86
    54.7200        68
    54.7400        46
    54.7600        68
    54.7800        54
    54.8000        52
    54.8200        56
    54.8400        60
    54.8600        68
    54.8800        66
    54.9000        62
    54.9200        64
    54.9400        52
    54.9600        48
    54.9800        52
    55.0000        58
    55.0200        62
    55.0400        62
    55.0600        58
    55.0800        54
    55.1000        66
    55.1200        72
    55.1400        54
    55.1600        40
    55.1800        62
    55.2000        62
    55.2200        46
    55.2400        72
    55.2600        44
    55.2800        50
    55.3000        52
    55.3200        50
    55.3400        48
    55.3600        56
    55.3800        54
    55.4000        36
    55.4200        58
    55.4400        60
    55.4600        68
    55.4800        48
    55.5000        58
    55.5200        50
    55.5400        64
    55.5600        54
    55.5800        60
    55.6000        54
    55.6200        58
    55.6400        56
    55.6600        48
    55.6800        52
    55.7000        58
    55.7200        60
    55.7400        50
    55.7600        46
    55.7800        52
    55.8000        62
    55.8200        50
    55.8400        50
    55.8600        60
    55.8800        44
    55.9000        60
    55.9200        38
    55.9400        68
    55.9600        48
    55.9800        56
    56.0000        48
    56.0200        56
    56.0400        48
    56.0600        42
    56.0800        46
    56.1000        62
    56.1200        40
    56.1400        58
    56.1600        52
    56.1800        54
    56.2000        34
    56.2200        60
    56.2400        60
    56.2600        52
    56.2800        60
    56.3000        60
    56.3200        44
    56.3400        40
    56.3600        52
    56.3800        54
    56.4000        56
    56.4200        50
    56.4400        42
    56.4600        62
    56.4800        44
    56.5000        40
    56.5200        58
    56.5400        46
    56.5600        54
    56.5800        54
    56.6000        56
    56.6200        50
    56.6400        56
    56.6600        32
    56.6800        46
    56.7000        48
    56.7200        60
    56.7400        54
    56.7600        52
    56.7800        70
    56.8000        42
    56.8200        56
    56.8400        54
    56.8600        40
    56.8800        42
    56.9000        48
    56.9200        54
    56.9400        52
    56.9600        50
    56.9800        54
    57.0000        58
    57.0200        46
    57.0400        60
    57.0600        54
    57.0800        48
    57.1000        54
    57.1200        42
    57.1400        52
    57.1600        64
    57.1800        50
    57.2000        44
    57.2200        50
    57.2400        58
    57.2600        46
    57.2800        56
    57.3000        62
    57.3200        52
    57.3400        50
    57.3600        60
    57.3800        58
    57.4000        54
    57.4200        54
    57.4400        56
    57.4600        46
    57.4800        48
    57.5000        40
    57.5200        48
    57.5400        62
    57.5600        52
    57.5800        60
    57.6000        36
    57.6200        44
    57.6400        42
    57.6600        58
    57.6800        42
    57.7000        66
    57.7200        46
    57.7400        46
    57.7600        52
    57.7800        58
    57.8000        44
    57.8200        52
    57.8400        50
    57.8600        44
    57.8800        56
    57.9000        42
    57.9200        60
    57.9400        56
    57.9600        48
    57.9800        60
    58.0000        50
    58.0200        50
    58.0400        42
    58.0600        36
    58.0800        44
    58.1000        46
    58.1200        46
    58.1400        48
    58.1600        44
    58.1800        44
    58.2000        38
    58.2200        52
    58.2400        62
    58.2600        44
    58.2800        56
    58.3000        52
    58.3200        44
    58.3400        48
    58.3600        58
    58.3800        64
    58.4000        58
    58.4200        52
    58.4400        50
    58.4600        52
    58.4800        44
    58.5000        60
    58.5200        42
    58.5400        48
    58.5600        64
    58.5800        44
    58.6000        46
    58.6200        58
    58.6400        52
    58.6600        58
    58.6800        56
    58.7000        48
    58.7200        64
    58.7400        58
    58.7600        48
    58.7800        68
    58.8000        56
    58.8200        54
    58.8400        46
    58.8600        66
    58.8800        54
    58.9000        52
    58.9200        64
    58.9400        60
    58.9600        54
    58.9800        46
    59.0000        64
    59.0200        60
    59.0400        50
    59.0600        58
    59.0800        56
    59.1000        54
    59.1200        54
    59.1400        52
    59.1600        58
    59.1800        62
    59.2000        52
    59.2200        60
    59.2400        48
    59.2600        64
    59.2800        48
    59.3000        54
    59.3200        50
    59.3400        54
    59.3600        72
    59.3800        60
    59.4000        64
    59.4200        60
    59.4400        48
    59.4600        54
    59.4800        62
    59.5000        58
    59.5200        44
    59.5400        56
    59.5600        52
    59.5800        52
    59.6000        66
    59.6200        62
    59.6400        48
    59.6600        66
    59.6800        66
    59.7000        40
    59.7200        56
    59.7400        70
    59.7600        78
    59.7800        62
    59.8000        76
    59.8200        62
    59.8400        54
    59.8600        58
    59.8800        72
    59.9000        58
    59.9200        64
    59.9400        44
    59.9600        68
    59.9800        52
    60.0000        66
    60.0200        54
    60.0400        46
    60.0600        52
    60.0800        62
    60.1000        68
    60.1200        52
    60.1400        64
    60.1600        62
    60.1800        60
    60.2000        68
    60.2200        64
    60.2400        66
    60.2600        66
    60.2800        56
    60.3000        80
    60.3200        66
    60.3400        68
    60.3600        64
    60.3800        70
    60.4000        64
    60.4200        76
    60.4400        74
    60.4600        72
    60.4800        68
    60.5000        68
    60.5200        78
    60.5400        80
    60.5600        80
    60.5800        70
    60.6000        86
    60.6200        56
    60.6400        64
    60.6600        74
    60.6800        90
    60.7000        70
    60.7200        70
    60.7400        76
    60.7600        92
    60.7800        86
    60.8000        70
    60.8200        84
    60.8400        84
    60.8600        80
    60.8800        82
    60.9000        88
    60.9200        92
    60.9400        74
    60.9600        68
    60.9800        90
    61.0000        88
    61.0200       108
    61.0400       106
    61.0600       138
    61.0800       128
    61.1000       136
    61.1200       144
    61.1400       164
    61.1600       190
    61.1800       200
    61.2000       232
    61.2200       234
    61.2400       218
    61.2600       204
    61.2800       198
    61.3000       188
    61.3200       158
    61.3400       142
    61.3600       192
    61.3800       154
    61.4000       128
    61.4200       118
    61.4400       124
    61.4600       104
    61.4800       106
    61.5000        92
    61.5200        84
    61.5400        78
    61.5600        86
    61.5800        64
    61.6000        58
    61.6200        68
    61.6400        72
    61.6600        60
    61.6800        88
    61.7000        66
    61.7200        68
    61.7400        64
    61.7600        56
    61.7800        72
    61.8000        62
    61.8200        58
    61.8400        72
    61.8600        72
    61.8800        60
    61.9000        74
    61.9200        94
    61.9400        70
    61.9600        86
    61.9800        84
    62.0000        88
    62.0200       108
    62.0400       102
    62.0600       118
    62.0800       118
    62.1000       162
    62.1200       150
    62.1400       162
    62.1600       184
    62.1800       212
    62.2000       214
    62.2200       270
    62.2400       228
    62.2600       280
    62.2800       246
    62.3000       262
    62.3200       242
    62.3400       198
    62.3600       212
    62.3800       192
    62.4000       162
    62.4200       176
    62.4400       160
    62.4600       152
    62.4800       120
    62.5000       114
    62.5200       114
    62.5400       106
    62.5600        84
    62.5800        74
    62.6000        74
    62.6200        58
    62.6400        72
    62.6600        68
    62.6800        56
    62.7000        68
    62.7200        66
    62.7400        64
    62.7600        58
    62.7800        50
    62.8000        64
    62.8200        64
    62.8400        50
    62.8600        58
    62.8800        56
    62.9000        46
    62.9200        54
    62.9400        56
    62.9600        54
    62.9800        58
    63.0000        50
    63.0200        56
    63.0400        72
    63.0600        56
    63.0800        52
    63.1000        58
    63.1200        52
    63.1400        62
    63.1600        62
    63.1800        50
    63.2000        66
    63.2200        48
    63.2400        70
    63.2600        44
    63.2800        56
    63.3000        58
    63.3200        54
    63.3400        34
    63.3600        56
    63.3800        56
    63.4000        48
    63.4200        66
    63.4400        54
    63.4600        58
    63.4800        58
    63.5000        44
    63.5200        66
    63.5400        50
    63.5600        64
    63.5800        48
    63.6000        48
    63.6200        44
    63.6400        48
    63.6600        54
    63.6800        52
    63.7000        38
    63.7200        48
    63.7400        62
    63.7600        48
    63.7800        48
    63.8000        54
    63.8200        62
    63.8400        48
    63.8600        46
    63.8800        66
    63.9000        48
    63.9200        50
    63.9400        56
    63.9600        54
    63.9800        48
    64.0000        54
    64.0200        72
    64.0400        52
    64.0600        46
    64.0800        54
    64.1000        44
    64.1200        54
    64.1400        56
    64.1600        62
    64.1800        54
    64.2000        40
    64.2200        70
    64.2400        58
    64.2600        58
    64.2800        52
    64.3000        52
    64.3200        42
    64.3400        52
    64.3600        46
    64.3800        38
    64.4000        52
    64.4200        56
    64.4400        44
    64.4600        48
    64.4800        60
    64.5000        48
    64.5200        52
    64.5400        66
    64.5600        52
    64.5800        62
    64.6000        44
    64.6200        48
    64.6400        66
    64.6600        54
    64.6800        52
    64.7000        38
    64.7200        58
    64.7400        48
    64.7600        48
    64.7800        46
    64.8000        54
    64.8200        56
    64.8400        50
    64.8600        58
    64.8800        56
    64.9000        58
    64.9200        46
    64.9400        46
    64.9600        50
    64.9800        46
    65.0000        60
