/////////////////////////////////////////////////////////////////////////////////
/// Profile Data Ascii Dump (XRD)                                             ///
/////////////////////////////////////////////////////////////////////////////////

  Group     : Swayze
  Data      : GDS764
  File Name : GDS764.RAW

# Profile Datafile
          comment             = Chlorite 
          date & time         = 08-03-12 05:58:27 

# Measurement Condition
    X-ray tube
          target              = Cu 
          voltage             = 40.0 (kV)
          current             = 30.0 (mA)
    Slits
          divergence slit     = 2.00000 (deg) 
          scatter slit        = 2.00000 (deg) 
          receiving slit      = 0.15000 (mm)  
    Scanning
          drive axis          = Theta-2Theta 
          scan range          =    4.000 -   65.000 
          scan mode           = Continuous Scan 
          scan speed          =   2.0000 (deg/min) 
          sampling pitch      =   0.0200 (deg) 
          preset time         =   0.60 (sec) 

# Data      [ Total No. = 3051 ]
  <2Theta>   <   I   >
     4.0000       212
     4.0200       200
     4.0400       222
     4.0600       226
     4.0800       222
     4.1000       226
     4.1200       216
     4.1400       230
     4.1600       234
     4.1800       218
     4.2000       222
     4.2200       222
     4.2400       216
     4.2600       208
     4.2800       218
     4.3000       210
     4.3200       200
     4.3400       204
     4.3600       188
     4.3800       214
     4.4000       190
     4.4200       204
     4.4400       198
     4.4600       174
     4.4800       206
     4.5000       214
     4.5200       196
     4.5400       200
     4.5600       210
     4.5800       186
     4.6000       200
     4.6200       202
     4.6400       192
     4.6600       196
     4.6800       184
     4.7000       170
     4.7200       218
     4.7400       172
     4.7600       192
     4.7800       180
     4.8000       178
     4.8200       222
     4.8400       188
     4.8600       220
     4.8800       188
     4.9000       174
     4.9200       178
     4.9400       168
     4.9600       182
     4.9800       200
     5.0000       208
     5.0200       190
     5.0400       208
     5.0600       206
     5.0800       184
     5.1000       238
     5.1200       180
     5.1400       188
     5.1600       172
     5.1800       206
     5.2000       192
     5.2200       196
     5.2400       218
     5.2600       216
     5.2800       186
     5.3000       208
     5.3200       184
     5.3400       200
     5.3600       200
     5.3800       226
     5.4000       218
     5.4200       228
     5.4400       226
     5.4600       192
     5.4800       242
     5.5000       208
     5.5200       200
     5.5400       232
     5.5600       230
     5.5800       226
     5.6000       260
     5.6200       216
     5.6400       262
     5.6600       264
     5.6800       278
     5.7000       280
     5.7200       276
     5.7400       284
     5.7600       284
     5.7800       296
     5.8000       316
     5.8200       334
     5.8400       366
     5.8600       342
     5.8800       370
     5.9000       360
     5.9200       398
     5.9400       468
     5.9600       456
     5.9800       518
     6.0000       544
     6.0200       574
     6.0400       662
     6.0600       692
     6.0800       748
     6.1000       856
     6.1200       904
     6.1400       972
     6.1600       988
     6.1800       938
     6.2000       800
     6.2200       666
     6.2400       536
     6.2600       476
     6.2800       376
     6.3000       316
     6.3200       300
     6.3400       236
     6.3600       242
     6.3800       234
     6.4000       204
     6.4200       178
     6.4400       192
     6.4600       186
     6.4800       170
     6.5000       156
     6.5200       140
     6.5400       184
     6.5600       172
     6.5800       162
     6.6000       170
     6.6200       178
     6.6400       162
     6.6600       156
     6.6800       162
     6.7000       164
     6.7200       120
     6.7400       134
     6.7600       136
     6.7800       150
     6.8000       134
     6.8200       142
     6.8400       144
     6.8600       110
     6.8800       144
     6.9000       132
     6.9200       134
     6.9400       142
     6.9600       152
     6.9800       144
     7.0000       128
     7.0200       154
     7.0400       148
     7.0600       126
     7.0800       144
     7.1000       146
     7.1200       136
     7.1400       130
     7.1600       118
     7.1800       150
     7.2000       130
     7.2200       142
     7.2400       136
     7.2600       150
     7.2800       124
     7.3000       110
     7.3200       126
     7.3400       116
     7.3600       112
     7.3800       122
     7.4000       130
     7.4200       136
     7.4400       114
     7.4600       128
     7.4800       136
     7.5000       124
     7.5200       126
     7.5400       132
     7.5600       144
     7.5800       136
     7.6000       120
     7.6200       108
     7.6400       130
     7.6600       136
     7.6800       132
     7.7000       128
     7.7200       104
     7.7400       136
     7.7600       116
     7.7800       146
     7.8000       122
     7.8200       118
     7.8400       120
     7.8600       112
     7.8800       120
     7.9000       106
     7.9200       130
     7.9400       118
     7.9600       108
     7.9800       108
     8.0000       106
     8.0200       144
     8.0400       110
     8.0600       118
     8.0800       102
     8.1000       126
     8.1200       118
     8.1400       124
     8.1600       122
     8.1800       112
     8.2000       122
     8.2200       108
     8.2400       120
     8.2600       116
     8.2800       108
     8.3000       114
     8.3200       112
     8.3400       126
     8.3600       132
     8.3800       120
     8.4000       112
     8.4200       128
     8.4400       130
     8.4600       112
     8.4800       120
     8.5000       108
     8.5200       126
     8.5400       110
     8.5600       136
     8.5800       116
     8.6000       146
     8.6200       128
     8.6400       132
     8.6600       104
     8.6800       158
     8.7000       122
     8.7200       128
     8.7400        94
     8.7600       116
     8.7800       130
     8.8000       112
     8.8200       122
     8.8400       120
     8.8600       130
     8.8800       134
     8.9000       116
     8.9200       122
     8.9400       120
     8.9600       138
     8.9800       136
     9.0000       134
     9.0200       120
     9.0400       120
     9.0600       114
     9.0800       120
     9.1000       124
     9.1200       136
     9.1400       110
     9.1600       144
     9.1800       114
     9.2000       126
     9.2200       112
     9.2400       116
     9.2600       138
     9.2800       120
     9.3000       110
     9.3200       118
     9.3400       112
     9.3600       102
     9.3800       142
     9.4000       136
     9.4200       136
     9.4400       138
     9.4600       110
     9.4800       122
     9.5000       108
     9.5200       136
     9.5400       126
     9.5600       150
     9.5800       110
     9.6000       138
     9.6200       108
     9.6400       118
     9.6600       134
     9.6800       126
     9.7000       114
     9.7200       118
     9.7400       108
     9.7600       126
     9.7800       110
     9.8000       112
     9.8200       108
     9.8400       136
     9.8600       102
     9.8800       114
     9.9000       136
     9.9200       110
     9.9400       132
     9.9600       126
     9.9800        98
    10.0000       114
    10.0200       122
    10.0400       106
    10.0600       124
    10.0800       102
    10.1000       114
    10.1200       124
    10.1400       126
    10.1600       106
    10.1800       112
    10.2000       110
    10.2200       112
    10.2400       100
    10.2600       114
    10.2800       106
    10.3000       116
    10.3200       116
    10.3400       106
    10.3600        90
    10.3800       126
    10.4000        98
    10.4200       108
    10.4400       112
    10.4600       102
    10.4800       116
    10.5000       126
    10.5200       106
    10.5400       118
    10.5600       110
    10.5800       100
    10.6000       110
    10.6200        94
    10.6400        90
    10.6600        90
    10.6800       102
    10.7000       124
    10.7200        90
    10.7400        98
    10.7600       128
    10.7800       114
    10.8000        98
    10.8200       104
    10.8400        92
    10.8600        84
    10.8800        96
    10.9000        90
    10.9200       102
    10.9400       106
    10.9600       108
    10.9800       100
    11.0000        90
    11.0200        92
    11.0400       100
    11.0600       106
    11.0800       134
    11.1000       110
    11.1200        94
    11.1400       116
    11.1600        96
    11.1800        92
    11.2000        98
    11.2200       108
    11.2400        98
    11.2600       110
    11.2800       100
    11.3000       110
    11.3200        92
    11.3400       100
    11.3600        98
    11.3800       102
    11.4000        92
    11.4200       106
    11.4400       100
    11.4600       108
    11.4800       124
    11.5000        92
    11.5200       114
    11.5400       118
    11.5600        90
    11.5800       118
    11.6000       130
    11.6200       134
    11.6400       126
    11.6600       146
    11.6800       132
    11.7000       148
    11.7200       120
    11.7400       138
    11.7600       150
    11.7800       160
    11.8000       124
    11.8200       166
    11.8400       154
    11.8600       174
    11.8800       178
    11.9000       192
    11.9200       204
    11.9400       202
    11.9600       244
    11.9800       236
    12.0000       236
    12.0200       308
    12.0400       290
    12.0600       324
    12.0800       366
    12.1000       376
    12.1200       434
    12.1400       518
    12.1600       536
    12.1800       580
    12.2000       646
    12.2200       680
    12.2400       926
    12.2600      1020
    12.2800      1134
    12.3000      1260
    12.3200      1356
    12.3400      1548
    12.3600      1760
    12.3800      1692
    12.4000      1662
    12.4200      1474
    12.4400      1234
    12.4600       980
    12.4800       750
    12.5000       524
    12.5200       388
    12.5400       320
    12.5600       244
    12.5800       222
    12.6000       228
    12.6200       182
    12.6400       160
    12.6600       128
    12.6800       108
    12.7000       114
    12.7200       114
    12.7400       110
    12.7600        92
    12.7800       102
    12.8000        92
    12.8200       108
    12.8400        96
    12.8600        82
    12.8800        98
    12.9000        70
    12.9200        80
    12.9400        86
    12.9600       114
    12.9800        94
    13.0000        90
    13.0200        78
    13.0400        88
    13.0600        72
    13.0800        80
    13.1000        76
    13.1200        70
    13.1400        80
    13.1600        76
    13.1800        92
    13.2000        70
    13.2200        82
    13.2400        84
    13.2600        66
    13.2800        68
    13.3000        74
    13.3200        66
    13.3400        66
    13.3600        78
    13.3800        92
    13.4000        82
    13.4200        90
    13.4400        72
    13.4600        64
    13.4800        88
    13.5000        66
    13.5200        76
    13.5400        74
    13.5600        68
    13.5800        74
    13.6000        62
    13.6200        68
    13.6400        64
    13.6600        72
    13.6800        86
    13.7000        70
    13.7200        60
    13.7400        74
    13.7600        74
    13.7800        70
    13.8000        72
    13.8200        82
    13.8400        70
    13.8600        64
    13.8800        66
    13.9000        70
    13.9200        84
    13.9400        70
    13.9600        58
    13.9800        68
    14.0000        58
    14.0200        60
    14.0400        70
    14.0600        78
    14.0800        78
    14.1000        48
    14.1200        72
    14.1400        76
    14.1600        54
    14.1800        72
    14.2000        60
    14.2200        64
    14.2400        56
    14.2600        58
    14.2800        70
    14.3000        74
    14.3200        72
    14.3400        82
    14.3600        56
    14.3800        72
    14.4000        58
    14.4200        58
    14.4400        62
    14.4600        66
    14.4800        60
    14.5000        60
    14.5200        72
    14.5400        68
    14.5600        60
    14.5800        62
    14.6000        72
    14.6200        62
    14.6400        60
    14.6600        64
    14.6800        62
    14.7000        68
    14.7200        68
    14.7400        64
    14.7600        78
    14.7800        60
    14.8000        60
    14.8200        60
    14.8400        68
    14.8600        76
    14.8800        68
    14.9000        64
    14.9200        54
    14.9400        62
    14.9600        84
    14.9800        72
    15.0000        56
    15.0200        58
    15.0400        62
    15.0600        56
    15.0800        74
    15.1000        66
    15.1200        52
    15.1400        58
    15.1600        78
    15.1800        62
    15.2000        84
    15.2200        42
    15.2400        52
    15.2600        68
    15.2800        66
    15.3000        72
    15.3200        58
    15.3400        70
    15.3600        74
    15.3800        64
    15.4000        58
    15.4200        64
    15.4400        76
    15.4600        60
    15.4800        68
    15.5000        46
    15.5200        76
    15.5400        66
    15.5600        68
    15.5800        72
    15.6000        72
    15.6200        56
    15.6400        58
    15.6600        70
    15.6800        72
    15.7000        62
    15.7200        54
    15.7400        56
    15.7600        64
    15.7800        58
    15.8000        52
    15.8200        66
    15.8400        60
    15.8600        50
    15.8800        46
    15.9000        46
    15.9200        54
    15.9400        54
    15.9600        58
    15.9800        58
    16.0000        50
    16.0200        52
    16.0400        56
    16.0600        68
    16.0800        68
    16.1000        48
    16.1200        56
    16.1400        84
    16.1600        58
    16.1800        64
    16.2000        64
    16.2200        60
    16.2400        58
    16.2600        58
    16.2800        58
    16.3000        64
    16.3200        68
    16.3400        52
    16.3600        44
    16.3800        54
    16.4000        50
    16.4200        68
    16.4400        56
    16.4600        56
    16.4800        62
    16.5000        66
    16.5200        64
    16.5400        44
    16.5600        48
    16.5800        46
    16.6000        66
    16.6200        62
    16.6400        68
    16.6600        56
    16.6800        60
    16.7000        50
    16.7200        74
    16.7400        72
    16.7600        66
    16.7800        72
    16.8000        66
    16.8200        68
    16.8400        72
    16.8600        62
    16.8800        66
    16.9000        66
    16.9200        78
    16.9400        58
    16.9600        80
    16.9800        50
    17.0000        70
    17.0200        54
    17.0400        82
    17.0600        60
    17.0800        62
    17.1000        52
    17.1200        48
    17.1400        56
    17.1600        72
    17.1800        70
    17.2000        58
    17.2200        60
    17.2400        74
    17.2600        60
    17.2800        68
    17.3000        58
    17.3200        52
    17.3400        64
    17.3600        64
    17.3800        68
    17.4000        62
    17.4200        58
    17.4400        50
    17.4600        72
    17.4800        76
    17.5000        72
    17.5200        60
    17.5400        70
    17.5600        66
    17.5800        60
    17.6000        72
    17.6200        78
    17.6400        74
    17.6600        80
    17.6800        64
    17.7000        66
    17.7200       100
    17.7400        62
    17.7600        86
    17.7800        68
    17.8000        62
    17.8200        84
    17.8400        78
    17.8600        76
    17.8800        80
    17.9000        88
    17.9200        82
    17.9400       104
    17.9600        94
    17.9800        78
    18.0000        94
    18.0200        86
    18.0400       120
    18.0600        98
    18.0800       108
    18.1000       126
    18.1200       140
    18.1400       112
    18.1600       122
    18.1800       140
    18.2000       152
    18.2200       176
    18.2400       184
    18.2600       202
    18.2800       204
    18.3000       284
    18.3200       266
    18.3400       316
    18.3600       338
    18.3800       370
    18.4000       408
    18.4200       496
    18.4400       548
    18.4600       594
    18.4800       718
    18.5000       792
    18.5200       938
    18.5400      1100
    18.5600      1256
    18.5800      1374
    18.6000      1576
    18.6200      1616
    18.6400      1666
    18.6600      1664
    18.6800      1436
    18.7000      1392
    18.7200      1134
    18.7400       936
    18.7600       792
    18.7800       588
    18.8000       458
    18.8200       366
    18.8400       338
    18.8600       228
    18.8800       216
    18.9000       196
    18.9200       212
    18.9400       200
    18.9600       180
    18.9800       168
    19.0000       174
    19.0200       178
    19.0400       204
    19.0600       186
    19.0800       168
    19.1000       192
    19.1200       196
    19.1400       254
    19.1600       270
    19.1800       270
    19.2000       302
    19.2200       280
    19.2400       264
    19.2600       294
    19.2800       282
    19.3000       260
    19.3200       262
    19.3400       226
    19.3600       246
    19.3800       218
    19.4000       208
    19.4200       218
    19.4400       216
    19.4600       194
    19.4800       188
    19.5000       224
    19.5200       186
    19.5400       170
    19.5600       192
    19.5800       158
    19.6000       196
    19.6200       154
    19.6400       190
    19.6600       162
    19.6800       140
    19.7000       174
    19.7200       146
    19.7400       160
    19.7600       152
    19.7800       146
    19.8000       174
    19.8200       172
    19.8400       138
    19.8600       142
    19.8800       154
    19.9000       142
    19.9200       150
    19.9400       126
    19.9600       144
    19.9800       116
    20.0000       136
    20.0200       126
    20.0400       140
    20.0600       112
    20.0800       124
    20.1000       116
    20.1200       116
    20.1400       128
    20.1600       100
    20.1800       120
    20.2000       106
    20.2200       124
    20.2400       112
    20.2600       136
    20.2800       108
    20.3000       100
    20.3200       118
    20.3400       106
    20.3600        94
    20.3800       128
    20.4000       116
    20.4200        96
    20.4400       120
    20.4600       102
    20.4800       110
    20.5000       136
    20.5200       120
    20.5400        90
    20.5600       128
    20.5800       112
    20.6000       110
    20.6200       114
    20.6400       130
    20.6600       124
    20.6800       104
    20.7000       108
    20.7200       128
    20.7400       116
    20.7600       102
    20.7800       118
    20.8000       118
    20.8200       120
    20.8400       118
    20.8600        94
    20.8800       126
    20.9000       122
    20.9200       102
    20.9400       112
    20.9600       130
    20.9800       132
    21.0000        94
    21.0200       108
    21.0400       100
    21.0600        98
    21.0800       116
    21.1000       106
    21.1200        90
    21.1400       130
    21.1600       110
    21.1800       116
    21.2000       100
    21.2200       108
    21.2400       120
    21.2600       114
    21.2800        94
    21.3000       106
    21.3200       102
    21.3400       112
    21.3600        90
    21.3800       100
    21.4000       106
    21.4200        92
    21.4400       100
    21.4600       110
    21.4800       108
    21.5000        96
    21.5200        86
    21.5400       112
    21.5600        80
    21.5800        98
    21.6000       104
    21.6200        94
    21.6400       112
    21.6600        88
    21.6800       104
    21.7000       108
    21.7200       104
    21.7400       102
    21.7600        76
    21.7800        94
    21.8000        90
    21.8200       106
    21.8400       100
    21.8600       112
    21.8800        86
    21.9000        86
    21.9200        88
    21.9400        82
    21.9600        80
    21.9800       120
    22.0000       100
    22.0200        90
    22.0400        94
    22.0600        80
    22.0800       100
    22.1000        98
    22.1200        88
    22.1400        68
    22.1600        94
    22.1800       100
    22.2000       102
    22.2200       118
    22.2400       100
    22.2600        98
    22.2800       104
    22.3000       106
    22.3200       100
    22.3400        82
    22.3600       100
    22.3800        96
    22.4000       104
    22.4200        98
    22.4400       104
    22.4600        88
    22.4800        90
    22.5000       120
    22.5200       112
    22.5400        88
    22.5600        84
    22.5800        82
    22.6000        88
    22.6200        96
    22.6400        94
    22.6600        82
    22.6800        98
    22.7000        86
    22.7200        78
    22.7400       100
    22.7600        80
    22.7800        86
    22.8000        92
    22.8200       102
    22.8400        92
    22.8600        86
    22.8800       108
    22.9000        86
    22.9200        82
    22.9400       104
    22.9600        76
    22.9800        82
    23.0000        94
    23.0200        92
    23.0400        64
    23.0600        84
    23.0800       102
    23.1000        90
    23.1200        98
    23.1400       104
    23.1600        88
    23.1800       110
    23.2000        76
    23.2200        70
    23.2400        92
    23.2600        98
    23.2800       116
    23.3000        94
    23.3200        92
    23.3400        86
    23.3600        96
    23.3800        92
    23.4000       104
    23.4200        94
    23.4400       110
    23.4600        92
    23.4800       108
    23.5000       102
    23.5200        90
    23.5400        86
    23.5600        80
    23.5800       110
    23.6000       102
    23.6200       102
    23.6400        90
    23.6600        80
    23.6800        90
    23.7000        80
    23.7200        92
    23.7400       104
    23.7600        86
    23.7800        80
    23.8000        88
    23.8200        92
    23.8400        96
    23.8600        86
    23.8800       106
    23.9000        88
    23.9200       110
    23.9400        92
    23.9600        98
    23.9800       108
    24.0000       106
    24.0200       108
    24.0400        94
    24.0600        94
    24.0800        88
    24.1000        82
    24.1200        88
    24.1400        90
    24.1600        80
    24.1800        94
    24.2000       102
    24.2200        96
    24.2400       100
    24.2600        98
    24.2800       112
    24.3000        92
    24.3200       108
    24.3400       136
    24.3600       110
    24.3800       108
    24.4000       134
    24.4200       114
    24.4400       114
    24.4600       116
    24.4800       154
    24.5000       146
    24.5200       162
    24.5400       156
    24.5600       200
    24.5800       208
    24.6000       242
    24.6200       252
    24.6400       262
    24.6600       298
    24.6800       338
    24.7000       404
    24.7200       412
    24.7400       536
    24.7600       654
    24.7800       722
    24.8000       832
    24.8200       922
    24.8400      1136
    24.8600      1342
    24.8800      1506
    24.9000      1670
    24.9200      1866
    24.9400      2008
    24.9600      1916
    24.9800      2008
    25.0000      1906
    25.0200      1784
    25.0400      1584
    25.0600      1344
    25.0800      1144
    25.1000       898
    25.1200       686
    25.1400       532
    25.1600       504
    25.1800       412
    25.2000       332
    25.2200       280
    25.2400       234
    25.2600       238
    25.2800       192
    25.3000       186
    25.3200       176
    25.3400       166
    25.3600       162
    25.3800       144
    25.4000       126
    25.4200       138
    25.4400       134
    25.4600       116
    25.4800       110
    25.5000       110
    25.5200       120
    25.5400       116
    25.5600       120
    25.5800        98
    25.6000       122
    25.6200       108
    25.6400       112
    25.6600        78
    25.6800        90
    25.7000        98
    25.7200        76
    25.7400        92
    25.7600        88
    25.7800        94
    25.8000        76
    25.8200        78
    25.8400        86
    25.8600        84
    25.8800        72
    25.9000        82
    25.9200        86
    25.9400       100
    25.9600        96
    25.9800        94
    26.0000       104
    26.0200        88
    26.0400        96
    26.0600        90
    26.0800        68
    26.1000       104
    26.1200        66
    26.1400        80
    26.1600        76
    26.1800        88
    26.2000        70
    26.2200        78
    26.2400        88
    26.2600        78
    26.2800        92
    26.3000        76
    26.3200        88
    26.3400        62
    26.3600        82
    26.3800        68
    26.4000        68
    26.4200        82
    26.4400        74
    26.4600        72
    26.4800        72
    26.5000        78
    26.5200        74
    26.5400        72
    26.5600        80
    26.5800        90
    26.6000        90
    26.6200        62
    26.6400        78
    26.6600        64
    26.6800        64
    26.7000        80
    26.7200        70
    26.7400        68
    26.7600        72
    26.7800        80
    26.8000        76
    26.8200       102
    26.8400        62
    26.8600        62
    26.8800        74
    26.9000        72
    26.9200        74
    26.9400        64
    26.9600        60
    26.9800        70
    27.0000        54
    27.0200        58
    27.0400        60
    27.0600        70
    27.0800        66
    27.1000        72
    27.1200        84
    27.1400        64
    27.1600        78
    27.1800        68
    27.2000        70
    27.2200        70
    27.2400        64
    27.2600        58
    27.2800        80
    27.3000        78
    27.3200        72
    27.3400        82
    27.3600        72
    27.3800        66
    27.4000        84
    27.4200        58
    27.4400        74
    27.4600        56
    27.4800        58
    27.5000        46
    27.5200        66
    27.5400        52
    27.5600        64
    27.5800        66
    27.6000        64
    27.6200        58
    27.6400        86
    27.6600        56
    27.6800        68
    27.7000        56
    27.7200        66
    27.7400        48
    27.7600        74
    27.7800        48
    27.8000        68
    27.8200        72
    27.8400        70
    27.8600        68
    27.8800        48
    27.9000        58
    27.9200        56
    27.9400        70
    27.9600        50
    27.9800        60
    28.0000        60
    28.0200        50
    28.0400        64
    28.0600        70
    28.0800        78
    28.1000        60
    28.1200        64
    28.1400        70
    28.1600        60
    28.1800        76
    28.2000        66
    28.2200        64
    28.2400        70
    28.2600        62
    28.2800        64
    28.3000        52
    28.3200        66
    28.3400        62
    28.3600        60
    28.3800        64
    28.4000        68
    28.4200        62
    28.4400        54
    28.4600        72
    28.4800        50
    28.5000        74
    28.5200        64
    28.5400        76
    28.5600        50
    28.5800        52
    28.6000        48
    28.6200        66
    28.6400        56
    28.6600        60
    28.6800        58
    28.7000        66
    28.7200        78
    28.7400        56
    28.7600        66
    28.7800        68
    28.8000        68
    28.8200        58
    28.8400        52
    28.8600        58
    28.8800        58
    28.9000        82
    28.9200        62
    28.9400        60
    28.9600        50
    28.9800        76
    29.0000        54
    29.0200        74
    29.0400        72
    29.0600        62
    29.0800        66
    29.1000        64
    29.1200        78
    29.1400        62
    29.1600        46
    29.1800        72
    29.2000        54
    29.2200        56
    29.2400        74
    29.2600        62
    29.2800        74
    29.3000        58
    29.3200        58
    29.3400        72
    29.3600        68
    29.3800        54
    29.4000        68
    29.4200        62
    29.4400        56
    29.4600        62
    29.4800        64
    29.5000        64
    29.5200        58
    29.5400        50
    29.5600        58
    29.5800        56
    29.6000        66
    29.6200        60
    29.6400        54
    29.6600        68
    29.6800        44
    29.7000        58
    29.7200        56
    29.7400        48
    29.7600        68
    29.7800        72
    29.8000        52
    29.8200        52
    29.8400        60
    29.8600        68
    29.8800        62
    29.9000        64
    29.9200        54
    29.9400        68
    29.9600        62
    29.9800        54
    30.0000        46
    30.0200        66
    30.0400        68
    30.0600        58
    30.0800        76
    30.1000        60
    30.1200        56
    30.1400        66
    30.1600        68
    30.1800        60
    30.2000        68
    30.2200        58
    30.2400        78
    30.2600        64
    30.2800        52
    30.3000        60
    30.3200        52
    30.3400        58
    30.3600        60
    30.3800        56
    30.4000        66
    30.4200        68
    30.4400        72
    30.4600        64
    30.4800        58
    30.5000        66
    30.5200        60
    30.5400        76
    30.5600        54
    30.5800        68
    30.6000        74
    30.6200        70
    30.6400        68
    30.6600        60
    30.6800        62
    30.7000        66
    30.7200        56
    30.7400        56
    30.7600        74
    30.7800        72
    30.8000        70
    30.8200        78
    30.8400        82
    30.8600        72
    30.8800        64
    30.9000        84
    30.9200        72
    30.9400       100
    30.9600       106
    30.9800        98
    31.0000        84
    31.0200       102
    31.0400       120
    31.0600       122
    31.0800       126
    31.1000       124
    31.1200       156
    31.1400       214
    31.1600       218
    31.1800       262
    31.2000       282
    31.2200       304
    31.2400       332
    31.2600       388
    31.2800       446
    31.3000       520
    31.3200       504
    31.3400       602
    31.3600       586
    31.3800       520
    31.4000       558
    31.4200       504
    31.4400       492
    31.4600       444
    31.4800       374
    31.5000       304
    31.5200       268
    31.5400       234
    31.5600       220
    31.5800       184
    31.6000       144
    31.6200       126
    31.6400       114
    31.6600       102
    31.6800       100
    31.7000        86
    31.7200        76
    31.7400        72
    31.7600        62
    31.7800        66
    31.8000        72
    31.8200        74
    31.8400        68
    31.8600        64
    31.8800        52
    31.9000        46
    31.9200        70
    31.9400        76
    31.9600        46
    31.9800        58
    32.0000        66
    32.0200        56
    32.0400        76
    32.0600        58
    32.0800        68
    32.1000        48
    32.1200        56
    32.1400        46
    32.1600        58
    32.1800        52
    32.2000        68
    32.2200        58
    32.2400        60
    32.2600        40
    32.2800        58
    32.3000        62
    32.3200        60
    32.3400        44
    32.3600        50
    32.3800        68
    32.4000        60
    32.4200        58
    32.4400        62
    32.4600        60
    32.4800        52
    32.5000        58
    32.5200        64
    32.5400        54
    32.5600        46
    32.5800        54
    32.6000        64
    32.6200        44
    32.6400        56
    32.6600        68
    32.6800        30
    32.7000        68
    32.7200        48
    32.7400        50
    32.7600        50
    32.7800        56
    32.8000        58
    32.8200        50
    32.8400        50
    32.8600        58
    32.8800        44
    32.9000        58
    32.9200        52
    32.9400        44
    32.9600        56
    32.9800        64
    33.0000        52
    33.0200        48
    33.0400        62
    33.0600        64
    33.0800        56
    33.1000        64
    33.1200        60
    33.1400        44
    33.1600        60
    33.1800        56
    33.2000        66
    33.2200        50
    33.2400        52
    33.2600        60
    33.2800        48
    33.3000        54
    33.3200        42
    33.3400        72
    33.3600        56
    33.3800        68
    33.4000        54
    33.4200        72
    33.4400        44
    33.4600        56
    33.4800        72
    33.5000        64
    33.5200        74
    33.5400        86
    33.5600        84
    33.5800        86
    33.6000        84
    33.6200        94
    33.6400        96
    33.6600       122
    33.6800       100
    33.7000       122
    33.7200       112
    33.7400        92
    33.7600        98
    33.7800       110
    33.8000        86
    33.8200        88
    33.8400       110
    33.8600        98
    33.8800        82
    33.9000        86
    33.9200        72
    33.9400        88
    33.9600        82
    33.9800        82
    34.0000        80
    34.0200        78
    34.0400        76
    34.0600        74
    34.0800        78
    34.1000        98
    34.1200        72
    34.1400        80
    34.1600        84
    34.1800        80
    34.2000        74
    34.2200        78
    34.2400        82
    34.2600        78
    34.2800        72
    34.3000        98
    34.3200        86
    34.3400       112
    34.3600       110
    34.3800       120
    34.4000       110
    34.4200       110
    34.4400       124
    34.4600       140
    34.4800       164
    34.5000       168
    34.5200       210
    34.5400       226
    34.5600       236
    34.5800       262
    34.6000       322
    34.6200       318
    34.6400       324
    34.6600       360
    34.6800       304
    34.7000       306
    34.7200       308
    34.7400       280
    34.7600       286
    34.7800       232
    34.8000       228
    34.8200       194
    34.8400       206
    34.8600       174
    34.8800       200
    34.9000       178
    34.9200       198
    34.9400       164
    34.9600       236
    34.9800       208
    35.0000       186
    35.0200       208
    35.0400       236
    35.0600       314
    35.0800       310
    35.1000       364
    35.1200       426
    35.1400       478
    35.1600       472
    35.1800       588
    35.2000       604
    35.2200       644
    35.2400       624
    35.2600       674
    35.2800       702
    35.3000       654
    35.3200       626
    35.3400       520
    35.3600       518
    35.3800       488
    35.4000       404
    35.4200       340
    35.4400       326
    35.4600       230
    35.4800       238
    35.5000       212
    35.5200       160
    35.5400       180
    35.5600       138
    35.5800       150
    35.6000       118
    35.6200       122
    35.6400       102
    35.6600       134
    35.6800       118
    35.7000       116
    35.7200       106
    35.7400        98
    35.7600       110
    35.7800       110
    35.8000       110
    35.8200       108
    35.8400       102
    35.8600        94
    35.8800        82
    35.9000       102
    35.9200       102
    35.9400       114
    35.9600       102
    35.9800        98
    36.0000        98
    36.0200       102
    36.0400        96
    36.0600       102
    36.0800        86
    36.1000       112
    36.1200        76
    36.1400        76
    36.1600        94
    36.1800        90
    36.2000        82
    36.2200        92
    36.2400        96
    36.2600        82
    36.2800        98
    36.3000        94
    36.3200       120
    36.3400       112
    36.3600       108
    36.3800       104
    36.4000       112
    36.4200       108
    36.4400       148
    36.4600       146
    36.4800       142
    36.5000       158
    36.5200       168
    36.5400       224
    36.5600       232
    36.5800       230
    36.6000       276
    36.6200       300
    36.6400       342
    36.6600       408
    36.6800       420
    36.7000       408
    36.7200       462
    36.7400       488
    36.7600       516
    36.7800       496
    36.8000       512
    36.8200       454
    36.8400       458
    36.8600       424
    36.8800       394
    36.9000       376
    36.9200       294
    36.9400       296
    36.9600       264
    36.9800       198
    37.0000       210
    37.0200       168
    37.0400       156
    37.0600       132
    37.0800       146
    37.1000       124
    37.1200       118
    37.1400       126
    37.1600       100
    37.1800       110
    37.2000        94
    37.2200       102
    37.2400        90
    37.2600        92
    37.2800        92
    37.3000       102
    37.3200       100
    37.3400       106
    37.3600       106
    37.3800       120
    37.4000       108
    37.4200       120
    37.4400       126
    37.4600       120
    37.4800       126
    37.5000       134
    37.5200       142
    37.5400       168
    37.5600       166
    37.5800       164
    37.6000       204
    37.6200       250
    37.6400       244
    37.6600       234
    37.6800       248
    37.7000       278
    37.7200       266
    37.7400       256
    37.7600       296
    37.7800       264
    37.8000       268
    37.8200       240
    37.8400       232
    37.8600       206
    37.8800       210
    37.9000       200
    37.9200       196
    37.9400       156
    37.9600       138
    37.9800       158
    38.0000       104
    38.0200       116
    38.0400       112
    38.0600       102
    38.0800       116
    38.1000        88
    38.1200        84
    38.1400        80
    38.1600        76
    38.1800        72
    38.2000        76
    38.2200        74
    38.2400        60
    38.2600        72
    38.2800        78
    38.3000        66
    38.3200        52
    38.3400        64
    38.3600        58
    38.3800        58
    38.4000        56
    38.4200        52
    38.4400        56
    38.4600        54
    38.4800        52
    38.5000        76
    38.5200        54
    38.5400        58
    38.5600        62
    38.5800        48
    38.6000        66
    38.6200        56
    38.6400        62
    38.6600        60
    38.6800        56
    38.7000        48
    38.7200        60
    38.7400        50
    38.7600        42
    38.7800        60
    38.8000        64
    38.8200        54
    38.8400        62
    38.8600        58
    38.8800        60
    38.9000        64
    38.9200        46
    38.9400        54
    38.9600        50
    38.9800        60
    39.0000        62
    39.0200        58
    39.0400        62
    39.0600        70
    39.0800        78
    39.1000        72
    39.1200        68
    39.1400        80
    39.1600        60
    39.1800        90
    39.2000        68
    39.2200        60
    39.2400        82
    39.2600        74
    39.2800        58
    39.3000        56
    39.3200        62
    39.3400        60
    39.3600        64
    39.3800        56
    39.4000        70
    39.4200        64
    39.4400        74
    39.4600        86
    39.4800       104
    39.5000       104
    39.5200        84
    39.5400        88
    39.5600       102
    39.5800        98
    39.6000       120
    39.6200       118
    39.6400       130
    39.6600       116
    39.6800       164
    39.7000       166
    39.7200       156
    39.7400       192
    39.7600       200
    39.7800       218
    39.8000       224
    39.8200       216
    39.8400       228
    39.8600       226
    39.8800       200
    39.9000       216
    39.9200       198
    39.9400       196
    39.9600       182
    39.9800       168
    40.0000       154
    40.0200       128
    40.0400       166
    40.0600       126
    40.0800       108
    40.1000       122
    40.1200       102
    40.1400       106
    40.1600        82
    40.1800        82
    40.2000        82
    40.2200        70
    40.2400        70
    40.2600        62
    40.2800        66
    40.3000        62
    40.3200        68
    40.3400        52
    40.3600        48
    40.3800        62
    40.4000        46
    40.4200        48
    40.4400        44
    40.4600        54
    40.4800        60
    40.5000        60
    40.5200        56
    40.5400        50
    40.5600        60
    40.5800        68
    40.6000        48
    40.6200        50
    40.6400        42
    40.6600        48
    40.6800        60
    40.7000        58
    40.7200        62
    40.7400        54
    40.7600        60
    40.7800        58
    40.8000        42
    40.8200        54
    40.8400        62
    40.8600        60
    40.8800        60
    40.9000        56
    40.9200        62
    40.9400        70
    40.9600        60
    40.9800        66
    41.0000        68
    41.0200        66
    41.0400        60
    41.0600        54
    41.0800        52
    41.1000        56
    41.1200        62
    41.1400        58
    41.1600        70
    41.1800        62
    41.2000        50
    41.2200        46
    41.2400        58
    41.2600        50
    41.2800        38
    41.3000        46
    41.3200        50
    41.3400        40
    41.3600        48
    41.3800        52
    41.4000        44
    41.4200        46
    41.4400        36
    41.4600        42
    41.4800        50
    41.5000        42
    41.5200        54
    41.5400        54
    41.5600        56
    41.5800        46
    41.6000        48
    41.6200        56
    41.6400        42
    41.6600        60
    41.6800        54
    41.7000        44
    41.7200        64
    41.7400        36
    41.7600        48
    41.7800        42
    41.8000        42
    41.8200        44
    41.8400        52
    41.8600        46
    41.8800        50
    41.9000        56
    41.9200        60
    41.9400        34
    41.9600        38
    41.9800        42
    42.0000        40
    42.0200        50
    42.0400        52
    42.0600        54
    42.0800        48
    42.1000        46
    42.1200        62
    42.1400        56
    42.1600        48
    42.1800        44
    42.2000        44
    42.2200        40
    42.2400        52
    42.2600        48
    42.2800        50
    42.3000        44
    42.3200        42
    42.3400        38
    42.3600        52
    42.3800        58
    42.4000        50
    42.4200        40
    42.4400        42
    42.4600        36
    42.4800        64
    42.5000        42
    42.5200        46
    42.5400        44
    42.5600        44
    42.5800        58
    42.6000        52
    42.6200        50
    42.6400        34
    42.6600        44
    42.6800        50
    42.7000        58
    42.7200        62
    42.7400        46
    42.7600        44
    42.7800        48
    42.8000        66
    42.8200        54
    42.8400        40
    42.8600        48
    42.8800        40
    42.9000        42
    42.9200        42
    42.9400        48
    42.9600        54
    42.9800        44
    43.0000        40
    43.0200        64
    43.0400        44
    43.0600        48
    43.0800        54
    43.1000        50
    43.1200        42
    43.1400        48
    43.1600        72
    43.1800        46
    43.2000        40
    43.2200        46
    43.2400        52
    43.2600        52
    43.2800        64
    43.3000        50
    43.3200        50
    43.3400        58
    43.3600        62
    43.3800        74
    43.4000        70
    43.4200        56
    43.4400        74
    43.4600        70
    43.4800        72
    43.5000        82
    43.5200        74
    43.5400        88
    43.5600        88
    43.5800        74
    43.6000        86
    43.6200       106
    43.6400        90
    43.6600        88
    43.6800       106
    43.7000        86
    43.7200       102
    43.7400        84
    43.7600        96
    43.7800        80
    43.8000       108
    43.8200       100
    43.8400        74
    43.8600        58
    43.8800        90
    43.9000        80
    43.9200        82
    43.9400        82
    43.9600        96
    43.9800        80
    44.0000        76
    44.0200        82
    44.0400        92
    44.0600        86
    44.0800        58
    44.1000        66
    44.1200        78
    44.1400        98
    44.1600        70
    44.1800        86
    44.2000        78
    44.2200        78
    44.2400        86
    44.2600        86
    44.2800       100
    44.3000       104
    44.3200       114
    44.3400       106
    44.3600       146
    44.3800       150
    44.4000       138
    44.4200       176
    44.4400       132
    44.4600       182
    44.4800       180
    44.5000       160
    44.5200       178
    44.5400       218
    44.5600       198
    44.5800       192
    44.6000       170
    44.6200       192
    44.6400       174
    44.6600       188
    44.6800       172
    44.7000       166
    44.7200       154
    44.7400       156
    44.7600       144
    44.7800       156
    44.8000       172
    44.8200       182
    44.8400       188
    44.8600       188
    44.8800       200
    44.9000       234
    44.9200       266
    44.9400       244
    44.9600       304
    44.9800       318
    45.0000       312
    45.0200       344
    45.0400       388
    45.0600       404
    45.0800       422
    45.1000       432
    45.1200       432
    45.1400       516
    45.1600       518
    45.1800       458
    45.2000       466
    45.2200       446
    45.2400       436
    45.2600       454
    45.2800       446
    45.3000       402
    45.3200       372
    45.3400       350
    45.3600       326
    45.3800       286
    45.4000       290
    45.4200       256
    45.4400       224
    45.4600       228
    45.4800       174
    45.5000       190
    45.5200       158
    45.5400       158
    45.5600       144
    45.5800       122
    45.6000       134
    45.6200       110
    45.6400       100
    45.6600        94
    45.6800        88
    45.7000        94
    45.7200        96
    45.7400        72
    45.7600        78
    45.7800        68
    45.8000        76
    45.8200        70
    45.8400        62
    45.8600        84
    45.8800        68
    45.9000        66
    45.9200        46
    45.9400        62
    45.9600        62
    45.9800        48
    46.0000        60
    46.0200        62
    46.0400        52
    46.0600        58
    46.0800        56
    46.1000        68
    46.1200        52
    46.1400        54
    46.1600        56
    46.1800        62
    46.2000        60
    46.2200        56
    46.2400        78
    46.2600        66
    46.2800        40
    46.3000        56
    46.3200        58
    46.3400        54
    46.3600        48
    46.3800        48
    46.4000        58
    46.4200        44
    46.4400        54
    46.4600        56
    46.4800        56
    46.5000        42
    46.5200        52
    46.5400        46
    46.5600        62
    46.5800        58
    46.6000        56
    46.6200        52
    46.6400        52
    46.6600        48
    46.6800        64
    46.7000        48
    46.7200        52
    46.7400        54
    46.7600        42
    46.7800        50
    46.8000        48
    46.8200        32
    46.8400        40
    46.8600        60
    46.8800        52
    46.9000        52
    46.9200        58
    46.9400        42
    46.9600        44
    46.9800        46
    47.0000        48
    47.0200        48
    47.0400        52
    47.0600        54
    47.0800        40
    47.1000        54
    47.1200        62
    47.1400        54
    47.1600        44
    47.1800        56
    47.2000        52
    47.2200        46
    47.2400        58
    47.2600        46
    47.2800        48
    47.3000        50
    47.3200        44
    47.3400        54
    47.3600        50
    47.3800        46
    47.4000        48
    47.4200        50
    47.4400        58
    47.4600        56
    47.4800        52
    47.5000        38
    47.5200        44
    47.5400        52
    47.5600        38
    47.5800        48
    47.6000        54
    47.6200        48
    47.6400        50
    47.6600        46
    47.6800        44
    47.7000        64
    47.7200        70
    47.7400        54
    47.7600        52
    47.7800        64
    47.8000        74
    47.8200        58
    47.8400        62
    47.8600        68
    47.8800        72
    47.9000        72
    47.9200        80
    47.9400        84
    47.9600        98
    47.9800       116
    48.0000       100
    48.0200       138
    48.0400       120
    48.0600       108
    48.0800       150
    48.1000       146
    48.1200       136
    48.1400       152
    48.1600       152
    48.1800       176
    48.2000       150
    48.2200       170
    48.2400       172
    48.2600       178
    48.2800       192
    48.3000       164
    48.3200       182
    48.3400       180
    48.3600       146
    48.3800       162
    48.4000       144
    48.4200       148
    48.4400       138
    48.4600       106
    48.4800       114
    48.5000       122
    48.5200       110
    48.5400       104
    48.5600        86
    48.5800        84
    48.6000        72
    48.6200        92
    48.6400        60
    48.6600        68
    48.6800        68
    48.7000        72
    48.7200        56
    48.7400        64
    48.7600        62
    48.7800        66
    48.8000        56
    48.8200        68
    48.8400        58
    48.8600        62
    48.8800        48
    48.9000        54
    48.9200        52
    48.9400        54
    48.9600        46
    48.9800        48
    49.0000        46
    49.0200        42
    49.0400        46
    49.0600        50
    49.0800        56
    49.1000        56
    49.1200        48
    49.1400        68
    49.1600        54
    49.1800        56
    49.2000        58
    49.2200        50
    49.2400        56
    49.2600        54
    49.2800        56
    49.3000        50
    49.3200        54
    49.3400        44
    49.3600        76
    49.3800        62
    49.4000        58
    49.4200        70
    49.4400        78
    49.4600        58
    49.4800        76
    49.5000        60
    49.5200        66
    49.5400        90
    49.5600        72
    49.5800        86
    49.6000        86
    49.6200        98
    49.6400       108
    49.6600       118
    49.6800       130
    49.7000       124
    49.7200       138
    49.7400       154
    49.7600       154
    49.7800       178
    49.8000       188
    49.8200       176
    49.8400       180
    49.8600       194
    49.8800       192
    49.9000       200
    49.9200       168
    49.9400       172
    49.9600       196
    49.9800       174
    50.0000       182
    50.0200       164
    50.0400       158
    50.0600       136
    50.0800       148
    50.1000       146
    50.1200       132
    50.1400       134
    50.1600       132
    50.1800        90
    50.2000       128
    50.2200        96
    50.2400       104
    50.2600        86
    50.2800        82
    50.3000        64
    50.3200        70
    50.3400        70
    50.3600        70
    50.3800        52
    50.4000        70
    50.4200        68
    50.4400        52
    50.4600        60
    50.4800        64
    50.5000        60
    50.5200        44
    50.5400        58
    50.5600        48
    50.5800        44
    50.6000        56
    50.6200        66
    50.6400        44
    50.6600        36
    50.6800        44
    50.7000        56
    50.7200        48
    50.7400        32
    50.7600        42
    50.7800        50
    50.8000        42
    50.8200        46
    50.8400        36
    50.8600        44
    50.8800        58
    50.9000        58
    50.9200        50
    50.9400        46
    50.9600        44
    50.9800        56
    51.0000        36
    51.0200        44
    51.0400        48
    51.0600        46
    51.0800        52
    51.1000        56
    51.1200        36
    51.1400        50
    51.1600        42
    51.1800        42
    51.2000        54
    51.2200        50
    51.2400        48
    51.2600        56
    51.2800        56
    51.3000        66
    51.3200        64
    51.3400        60
    51.3600        50
    51.3800        48
    51.4000        52
    51.4200        40
    51.4400        46
    51.4600        52
    51.4800        36
    51.5000        46
    51.5200        38
    51.5400        46
    51.5600        44
    51.5800        42
    51.6000        36
    51.6200        40
    51.6400        40
    51.6600        48
    51.6800        54
    51.7000        36
    51.7200        48
    51.7400        34
    51.7600        38
    51.7800        42
    51.8000        42
    51.8200        42
    51.8400        48
    51.8600        26
    51.8800        36
    51.9000        52
    51.9200        48
    51.9400        42
    51.9600        38
    51.9800        48
    52.0000        50
    52.0200        38
    52.0400        46
    52.0600        36
    52.0800        46
    52.1000        40
    52.1200        44
    52.1400        38
    52.1600        36
    52.1800        48
    52.2000        50
    52.2200        54
    52.2400        52
    52.2600        50
    52.2800        52
    52.3000        36
    52.3200        56
    52.3400        54
    52.3600        60
    52.3800        66
    52.4000        68
    52.4200        54
    52.4400        78
    52.4600        80
    52.4800        72
    52.5000        74
    52.5200        68
    52.5400        70
    52.5600        80
    52.5800        58
    52.6000        84
    52.6200        70
    52.6400        84
    52.6600        66
    52.6800        66
    52.7000        88
    52.7200        78
    52.7400        78
    52.7600        86
    52.7800        86
    52.8000        72
    52.8200        68
    52.8400        74
    52.8600        62
    52.8800        76
    52.9000        64
    52.9200        82
    52.9400        70
    52.9600        56
    52.9800        76
    53.0000        76
    53.0200        70
    53.0400        72
    53.0600        82
    53.0800        82
    53.1000        70
    53.1200        68
    53.1400        78
    53.1600        78
    53.1800        94
    53.2000        90
    53.2200        80
    53.2400        66
    53.2600        88
    53.2800        74
    53.3000        76
    53.3200        74
    53.3400        78
    53.3600        76
    53.3800        80
    53.4000        68
    53.4200        84
    53.4400        80
    53.4600        96
    53.4800        74
    53.5000        76
    53.5200        72
    53.5400        94
    53.5600        72
    53.5800        74
    53.6000        58
    53.6200        70
    53.6400        56
    53.6600        60
    53.6800        54
    53.7000        60
    53.7200        68
    53.7400        76
    53.7600        56
    53.7800        64
    53.8000        74
    53.8200        68
    53.8400        64
    53.8600        76
    53.8800        52
    53.9000        46
    53.9200        56
    53.9400        58
    53.9600        66
    53.9800        62
    54.0000        64
    54.0200        54
    54.0400        70
    54.0600        58
    54.0800        54
    54.1000        60
    54.1200        52
    54.1400        72
    54.1600        62
    54.1800        46
    54.2000        62
    54.2200        62
    54.2400        52
    54.2600        60
    54.2800        66
    54.3000        64
    54.3200        56
    54.3400        70
    54.3600        62
    54.3800        50
    54.4000        58
    54.4200        56
    54.4400        64
    54.4600        44
    54.4800        48
    54.5000        46
    54.5200        66
    54.5400        52
    54.5600        62
    54.5800        68
    54.6000        58
    54.6200        68
    54.6400        64
    54.6600        60
    54.6800        62
    54.7000        56
    54.7200        76
    54.7400        76
    54.7600        64
    54.7800        64
    54.8000        74
    54.8200        74
    54.8400        78
    54.8600        80
    54.8800        88
    54.9000        92
    54.9200        70
    54.9400        84
    54.9600        74
    54.9800        92
    55.0000        78
    55.0200        80
    55.0400       114
    55.0600       100
    55.0800       108
    55.1000        78
    55.1200       110
    55.1400       110
    55.1600       106
    55.1800       102
    55.2000       120
    55.2200        96
    55.2400       100
    55.2600        80
    55.2800       110
    55.3000        76
    55.3200        94
    55.3400        86
    55.3600        84
    55.3800        94
    55.4000       100
    55.4200        90
    55.4400        86
    55.4600        60
    55.4800        64
    55.5000        56
    55.5200        60
    55.5400        62
    55.5600        62
    55.5800        58
    55.6000        58
    55.6200        56
    55.6400        64
    55.6600        58
    55.6800        50
    55.7000        66
    55.7200        58
    55.7400        54
    55.7600        44
    55.7800        64
    55.8000        62
    55.8200        56
    55.8400        50
    55.8600        52
    55.8800        54
    55.9000        54
    55.9200        44
    55.9400        48
    55.9600        48
    55.9800        50
    56.0000        48
    56.0200        52
    56.0400        64
    56.0600        46
    56.0800        50
    56.1000        56
    56.1200        32
    56.1400        58
    56.1600        44
    56.1800        66
    56.2000        66
    56.2200        38
    56.2400        58
    56.2600        50
    56.2800        46
    56.3000        46
    56.3200        42
    56.3400        56
    56.3600        52
    56.3800        50
    56.4000        42
    56.4200        50
    56.4400        52
    56.4600        48
    56.4800        56
    56.5000        50
    56.5200        48
    56.5400        60
    56.5600        56
    56.5800        54
    56.6000        50
    56.6200        56
    56.6400        54
    56.6600        38
    56.6800        64
    56.7000        46
    56.7200        62
    56.7400        60
    56.7600        44
    56.7800        46
    56.8000        54
    56.8200        64
    56.8400        50
    56.8600        48
    56.8800        50
    56.9000        44
    56.9200        54
    56.9400        62
    56.9600        42
    56.9800        58
    57.0000        44
    57.0200        48
    57.0400        52
    57.0600        44
    57.0800        58
    57.1000        54
    57.1200        48
    57.1400        48
    57.1600        56
    57.1800        62
    57.2000        60
    57.2200        56
    57.2400        60
    57.2600        58
    57.2800        46
    57.3000        58
    57.3200        54
    57.3400        56
    57.3600        54
    57.3800        40
    57.4000        56
    57.4200        42
    57.4400        54
    57.4600        54
    57.4800        42
    57.5000        50
    57.5200        50
    57.5400        52
    57.5600        56
    57.5800        64
    57.6000        64
    57.6200        50
    57.6400        54
    57.6600        54
    57.6800        52
    57.7000        54
    57.7200        58
    57.7400        48
    57.7600        56
    57.7800        56
    57.8000        82
    57.8200        54
    57.8400        66
    57.8600        52
    57.8800        48
    57.9000        74
    57.9200        56
    57.9400        66
    57.9600        48
    57.9800        68
    58.0000        56
    58.0200        76
    58.0400        80
    58.0600        72
    58.0800        76
    58.1000        88
    58.1200        78
    58.1400        78
    58.1600        74
    58.1800        80
    58.2000       100
    58.2200        74
    58.2400        80
    58.2600       118
    58.2800       108
    58.3000       102
    58.3200       106
    58.3400       110
    58.3600       106
    58.3800       130
    58.4000       120
    58.4200       126
    58.4400       140
    58.4600       140
    58.4800       174
    58.5000       156
    58.5200       176
    58.5400       190
    58.5600       168
    58.5800       204
    58.6000       198
    58.6200       216
    58.6400       240
    58.6600       238
    58.6800       264
    58.7000       288
    58.7200       262
    58.7400       266
    58.7600       336
    58.7800       312
    58.8000       300
    58.8200       314
    58.8400       294
    58.8600       324
    58.8800       316
    58.9000       310
    58.9200       298
    58.9400       278
    58.9600       286
    58.9800       310
    59.0000       274
    59.0200       240
    59.0400       250
    59.0600       268
    59.0800       228
    59.1000       222
    59.1200       196
    59.1400       184
    59.1600       190
    59.1800       178
    59.2000       158
    59.2200       140
    59.2400       146
    59.2600       156
    59.2800       120
    59.3000       130
    59.3200       108
    59.3400       106
    59.3600       112
    59.3800       106
    59.4000        78
    59.4200       104
    59.4400       122
    59.4600        82
    59.4800        90
    59.5000        98
    59.5200        68
    59.5400        82
    59.5600        84
    59.5800        74
    59.6000       102
    59.6200        90
    59.6400        74
    59.6600        74
    59.6800        88
    59.7000        80
    59.7200        80
    59.7400       104
    59.7600        80
    59.7800        92
    59.8000        80
    59.8200        96
    59.8400        92
    59.8600       122
    59.8800       112
    59.9000       134
    59.9200       136
    59.9400       136
    59.9600       210
    59.9800       158
    60.0000       228
    60.0200       240
    60.0400       236
    60.0600       318
    60.0800       310
    60.1000       366
    60.1200       402
    60.1400       380
    60.1600       438
    60.1800       412
    60.2000       374
    60.2200       380
    60.2400       392
    60.2600       392
    60.2800       356
    60.3000       328
    60.3200       304
    60.3400       298
    60.3600       260
    60.3800       264
    60.4000       242
    60.4200       234
    60.4400       194
    60.4600       188
    60.4800       142
    60.5000       126
    60.5200       140
    60.5400       114
    60.5600       128
    60.5800       120
    60.6000       100
    60.6200        92
    60.6400       108
    60.6600        94
    60.6800        92
    60.7000        80
    60.7200       102
    60.7400        88
    60.7600        82
    60.7800        80
    60.8000        78
    60.8200        94
    60.8400        58
    60.8600        86
    60.8800        78
    60.9000        68
    60.9200        78
    60.9400        86
    60.9600        72
    60.9800        70
    61.0000        72
    61.0200        72
    61.0400        76
    61.0600        68
    61.0800        68
    61.1000        72
    61.1200        78
    61.1400        58
    61.1600        64
    61.1800        56
    61.2000        72
    61.2200        66
    61.2400        62
    61.2600        72
    61.2800        66
    61.3000        68
    61.3200        68
    61.3400        66
    61.3600        86
    61.3800        70
    61.4000        62
    61.4200        80
    61.4400        70
    61.4600        86
    61.4800        86
    61.5000        94
    61.5200       102
    61.5400       116
    61.5600        92
    61.5800       128
    61.6000       126
    61.6200       138
    61.6400       124
    61.6600       124
    61.6800       126
    61.7000       142
    61.7200       136
    61.7400       140
    61.7600       146
    61.7800       132
    61.8000       142
    61.8200       136
    61.8400       114
    61.8600       112
    61.8800       130
    61.9000       112
    61.9200        96
    61.9400        86
    61.9600       100
    61.9800        84
    62.0000        90
    62.0200        82
    62.0400        64
    62.0600        60
    62.0800        66
    62.1000        64
    62.1200        42
    62.1400        50
    62.1600        58
    62.1800        52
    62.2000        46
    62.2200        56
    62.2400        66
    62.2600        52
    62.2800        42
    62.3000        56
    62.3200        50
    62.3400        42
    62.3600        44
    62.3800        44
    62.4000        56
    62.4200        46
    62.4400        48
    62.4600        42
    62.4800        40
    62.5000        34
    62.5200        58
    62.5400        50
    62.5600        54
    62.5800        48
    62.6000        36
    62.6200        54
    62.6400        36
    62.6600        48
    62.6800        26
    62.7000        48
    62.7200        38
    62.7400        50
    62.7600        40
    62.7800        60
    62.8000        44
    62.8200        48
    62.8400        54
    62.8600        56
    62.8800        54
    62.9000        44
    62.9200        48
    62.9400        48
    62.9600        50
    62.9800        54
    63.0000        54
    63.0200        42
    63.0400        48
    63.0600        44
    63.0800        70
    63.1000        32
    63.1200        54
    63.1400        38
    63.1600        68
    63.1800        42
    63.2000        38
    63.2200        66
    63.2400        52
    63.2600        52
    63.2800        62
    63.3000        60
    63.3200        66
    63.3400        46
    63.3600        50
    63.3800        50
    63.4000        46
    63.4200        58
    63.4400        68
    63.4600        68
    63.4800        60
    63.5000        78
    63.5200        64
    63.5400        72
    63.5600        76
    63.5800        62
    63.6000        78
    63.6200        78
    63.6400        78
    63.6600        80
    63.6800        64
    63.7000        58
    63.7200        70
    63.7400        72
    63.7600        72
    63.7800        64
    63.8000        66
    63.8200        58
    63.8400        60
    63.8600        56
    63.8800        52
    63.9000        56
    63.9200        56
    63.9400        48
    63.9600        46
    63.9800        52
    64.0000        46
    64.0200        64
    64.0400        32
    64.0600        44
    64.0800        60
    64.1000        58
    64.1200        44
    64.1400        48
    64.1600        52
    64.1800        32
    64.2000        54
    64.2200        24
    64.2400        48
    64.2600        62
    64.2800        48
    64.3000        56
    64.3200        40
    64.3400        56
    64.3600        36
    64.3800        36
    64.4000        48
    64.4200        50
    64.4400        52
    64.4600        52
    64.4800        30
    64.5000        42
    64.5200        58
    64.5400        42
    64.5600        34
    64.5800        34
    64.6000        42
    64.6200        38
    64.6400        58
    64.6600        46
    64.6800        48
    64.7000        58
    64.7200        50
    64.7400        42
    64.7600        54
    64.7800        48
    64.8000        44
    64.8200        38
    64.8400        46
    64.8600        38
    64.8800        52
    64.9000        46
    64.9200        44
    64.9400        48
    64.9600        42
    64.9800        44
    65.0000        48
