/////////////////////////////////////////////////////////////////////////////////
/// Profile Data Ascii Dump (XRD)                                             ///
/////////////////////////////////////////////////////////////////////////////////

  Group     : Swayze
  Data      : GDS739B
  File Name : GDS739B.RAW

# Profile Datafile
          comment             =   
          date & time         = 08-03-11 06:05:48 

# Measurement Condition
    X-ray tube
          target              = Cu 
          voltage             = 40.0 (kV)
          current             = 30.0 (mA)
    Slits
          divergence slit     = 2.00000 (deg) 
          scatter slit        = 2.00000 (deg) 
          receiving slit      = 0.15000 (mm)  
    Scanning
          drive axis          = Theta-2Theta 
          scan range          =    4.000 -   65.000 
          scan mode           = Continuous Scan 
          scan speed          =   2.0000 (deg/min) 
          sampling pitch      =   0.0200 (deg) 
          preset time         =   0.60 (sec) 

# Data      [ Total No. = 3051 ]
  <2Theta>   <   I   >
     4.0000       186
     4.0200       204
     4.0400       194
     4.0600       202
     4.0800       186
     4.1000       206
     4.1200       214
     4.1400       222
     4.1600       182
     4.1800       208
     4.2000       214
     4.2200       186
     4.2400       188
     4.2600       188
     4.2800       162
     4.3000       186
     4.3200       162
     4.3400       160
     4.3600       176
     4.3800       206
     4.4000       158
     4.4200       190
     4.4400       202
     4.4600       170
     4.4800       200
     4.5000       164
     4.5200       186
     4.5400       184
     4.5600       170
     4.5800       206
     4.6000       178
     4.6200       178
     4.6400       146
     4.6600       188
     4.6800       176
     4.7000       164
     4.7200       180
     4.7400       162
     4.7600       134
     4.7800       186
     4.8000       156
     4.8200       170
     4.8400       166
     4.8600       144
     4.8800       188
     4.9000       176
     4.9200       164
     4.9400       172
     4.9600       184
     4.9800       158
     5.0000       168
     5.0200       172
     5.0400       162
     5.0600       168
     5.0800       144
     5.1000       182
     5.1200       176
     5.1400       162
     5.1600       146
     5.1800       152
     5.2000       158
     5.2200       154
     5.2400       180
     5.2600       172
     5.2800       164
     5.3000       158
     5.3200       150
     5.3400       172
     5.3600       180
     5.3800       158
     5.4000       166
     5.4200       168
     5.4400       156
     5.4600       160
     5.4800       152
     5.5000       160
     5.5200       200
     5.5400       158
     5.5600       160
     5.5800       180
     5.6000       172
     5.6200       152
     5.6400       146
     5.6600       180
     5.6800       168
     5.7000       192
     5.7200       162
     5.7400       150
     5.7600       172
     5.7800       160
     5.8000       152
     5.8200       194
     5.8400       166
     5.8600       170
     5.8800       144
     5.9000       154
     5.9200       152
     5.9400       166
     5.9600       160
     5.9800       176
     6.0000       188
     6.0200       142
     6.0400       168
     6.0600       162
     6.0800       158
     6.1000       156
     6.1200       154
     6.1400       160
     6.1600       172
     6.1800       142
     6.2000       180
     6.2200       160
     6.2400       160
     6.2600       158
     6.2800       150
     6.3000       168
     6.3200       144
     6.3400       176
     6.3600       124
     6.3800       132
     6.4000       148
     6.4200       158
     6.4400       154
     6.4600       138
     6.4800       150
     6.5000       150
     6.5200       150
     6.5400       112
     6.5600       136
     6.5800       136
     6.6000       148
     6.6200       156
     6.6400       144
     6.6600       156
     6.6800       124
     6.7000       162
     6.7200       144
     6.7400       172
     6.7600       124
     6.7800       158
     6.8000       158
     6.8200       148
     6.8400       138
     6.8600       126
     6.8800       132
     6.9000       130
     6.9200       138
     6.9400       136
     6.9600       142
     6.9800       144
     7.0000       134
     7.0200       122
     7.0400       128
     7.0600       126
     7.0800       114
     7.1000       120
     7.1200       130
     7.1400       130
     7.1600       128
     7.1800       126
     7.2000       128
     7.2200       124
     7.2400       118
     7.2600       118
     7.2800       108
     7.3000       126
     7.3200       112
     7.3400       148
     7.3600       126
     7.3800       114
     7.4000       120
     7.4200       122
     7.4400       132
     7.4600       122
     7.4800       128
     7.5000       116
     7.5200       116
     7.5400       104
     7.5600       112
     7.5800       126
     7.6000       134
     7.6200       132
     7.6400       120
     7.6600       118
     7.6800       104
     7.7000       122
     7.7200       116
     7.7400       122
     7.7600       138
     7.7800       134
     7.8000        96
     7.8200        96
     7.8400       120
     7.8600       122
     7.8800        98
     7.9000       112
     7.9200       120
     7.9400       118
     7.9600       106
     7.9800       102
     8.0000       128
     8.0200       110
     8.0400       118
     8.0600       138
     8.0800       126
     8.1000       136
     8.1200       110
     8.1400       124
     8.1600       110
     8.1800       124
     8.2000        78
     8.2200       104
     8.2400       116
     8.2600       124
     8.2800       126
     8.3000       108
     8.3200       128
     8.3400       104
     8.3600       116
     8.3800       104
     8.4000       106
     8.4200       116
     8.4400       132
     8.4600        98
     8.4800       108
     8.5000       122
     8.5200       110
     8.5400       128
     8.5600       116
     8.5800       134
     8.6000       132
     8.6200       108
     8.6400       112
     8.6600       112
     8.6800       136
     8.7000       106
     8.7200       120
     8.7400       144
     8.7600       102
     8.7800       128
     8.8000       126
     8.8200       108
     8.8400       124
     8.8600       124
     8.8800       128
     8.9000       128
     8.9200       128
     8.9400       104
     8.9600       124
     8.9800       132
     9.0000       102
     9.0200       138
     9.0400       108
     9.0600       130
     9.0800       120
     9.1000       118
     9.1200       122
     9.1400       114
     9.1600       104
     9.1800       122
     9.2000       110
     9.2200       110
     9.2400       108
     9.2600       114
     9.2800       124
     9.3000       116
     9.3200       112
     9.3400       144
     9.3600       126
     9.3800       132
     9.4000       122
     9.4200       148
     9.4400       112
     9.4600       124
     9.4800       112
     9.5000       126
     9.5200       138
     9.5400       140
     9.5600       100
     9.5800       118
     9.6000       112
     9.6200       118
     9.6400       120
     9.6600       112
     9.6800       112
     9.7000        96
     9.7200       112
     9.7400       122
     9.7600       136
     9.7800       116
     9.8000       126
     9.8200       110
     9.8400       132
     9.8600       118
     9.8800       118
     9.9000       104
     9.9200       128
     9.9400       108
     9.9600       116
     9.9800       120
    10.0000       106
    10.0200       108
    10.0400       106
    10.0600       118
    10.0800       122
    10.1000       112
    10.1200       128
    10.1400       114
    10.1600        86
    10.1800        92
    10.2000       106
    10.2200       110
    10.2400       114
    10.2600        98
    10.2800        98
    10.3000       112
    10.3200       106
    10.3400       102
    10.3600       114
    10.3800       104
    10.4000        98
    10.4200       112
    10.4400        82
    10.4600       112
    10.4800       100
    10.5000       102
    10.5200       104
    10.5400       104
    10.5600       108
    10.5800        96
    10.6000        98
    10.6200       106
    10.6400       100
    10.6600       112
    10.6800       100
    10.7000       122
    10.7200        92
    10.7400       104
    10.7600       114
    10.7800       112
    10.8000       114
    10.8200       126
    10.8400       110
    10.8600        86
    10.8800       108
    10.9000        96
    10.9200        96
    10.9400       104
    10.9600        92
    10.9800        90
    11.0000       108
    11.0200       102
    11.0400        94
    11.0600       100
    11.0800       106
    11.1000        92
    11.1200        86
    11.1400        84
    11.1600        92
    11.1800       104
    11.2000        84
    11.2200        82
    11.2400        92
    11.2600        94
    11.2800        80
    11.3000       110
    11.3200        88
    11.3400        80
    11.3600       126
    11.3800        92
    11.4000        76
    11.4200        88
    11.4400        82
    11.4600       102
    11.4800        78
    11.5000        96
    11.5200        84
    11.5400        86
    11.5600        94
    11.5800       104
    11.6000       106
    11.6200        88
    11.6400        84
    11.6600        70
    11.6800        90
    11.7000       100
    11.7200        86
    11.7400        96
    11.7600        90
    11.7800        96
    11.8000        90
    11.8200        86
    11.8400        82
    11.8600        80
    11.8800        78
    11.9000        84
    11.9200        78
    11.9400        92
    11.9600        92
    11.9800        86
    12.0000        82
    12.0200       102
    12.0400        76
    12.0600        74
    12.0800        90
    12.1000        72
    12.1200        86
    12.1400        82
    12.1600       106
    12.1800        88
    12.2000        86
    12.2200        94
    12.2400        86
    12.2600        80
    12.2800        92
    12.3000       100
    12.3200        68
    12.3400        88
    12.3600        84
    12.3800        80
    12.4000        76
    12.4200        78
    12.4400        84
    12.4600        86
    12.4800        76
    12.5000       108
    12.5200        80
    12.5400        82
    12.5600        76
    12.5800        76
    12.6000        84
    12.6200        90
    12.6400        84
    12.6600        94
    12.6800        64
    12.7000       100
    12.7200        86
    12.7400        72
    12.7600        78
    12.7800        82
    12.8000        88
    12.8200        94
    12.8400        80
    12.8600        86
    12.8800       108
    12.9000        64
    12.9200        86
    12.9400        84
    12.9600        80
    12.9800        74
    13.0000        54
    13.0200        78
    13.0400        84
    13.0600        88
    13.0800        62
    13.1000        66
    13.1200        78
    13.1400        70
    13.1600        86
    13.1800        82
    13.2000        62
    13.2200        82
    13.2400        84
    13.2600        64
    13.2800        68
    13.3000        96
    13.3200        92
    13.3400        72
    13.3600        66
    13.3800        90
    13.4000        70
    13.4200        66
    13.4400        76
    13.4600        74
    13.4800        78
    13.5000        74
    13.5200        74
    13.5400        82
    13.5600        66
    13.5800        80
    13.6000        86
    13.6200        92
    13.6400        76
    13.6600        88
    13.6800        74
    13.7000        74
    13.7200        82
    13.7400        54
    13.7600        66
    13.7800        64
    13.8000        94
    13.8200        64
    13.8400        68
    13.8600        74
    13.8800        60
    13.9000        50
    13.9200        60
    13.9400        62
    13.9600        58
    13.9800        64
    14.0000        74
    14.0200        50
    14.0400        74
    14.0600        68
    14.0800        62
    14.1000        82
    14.1200        72
    14.1400        64
    14.1600        82
    14.1800        76
    14.2000        64
    14.2200        74
    14.2400        64
    14.2600        78
    14.2800        66
    14.3000        78
    14.3200        60
    14.3400        70
    14.3600        74
    14.3800        58
    14.4000        68
    14.4200        60
    14.4400        68
    14.4600        78
    14.4800        64
    14.5000        84
    14.5200        64
    14.5400        78
    14.5600        70
    14.5800        74
    14.6000        68
    14.6200        74
    14.6400        74
    14.6600        60
    14.6800        70
    14.7000        70
    14.7200        64
    14.7400        80
    14.7600        74
    14.7800        72
    14.8000        70
    14.8200        72
    14.8400        58
    14.8600        74
    14.8800        58
    14.9000        48
    14.9200        72
    14.9400        76
    14.9600        82
    14.9800        68
    15.0000        68
    15.0200        72
    15.0400        84
    15.0600        72
    15.0800        60
    15.1000        68
    15.1200        68
    15.1400        70
    15.1600        78
    15.1800        78
    15.2000        74
    15.2200        68
    15.2400        68
    15.2600        74
    15.2800        76
    15.3000        70
    15.3200        92
    15.3400       104
    15.3600        84
    15.3800        86
    15.4000       112
    15.4200       108
    15.4400        98
    15.4600       122
    15.4800       150
    15.5000       156
    15.5200       146
    15.5400       170
    15.5600       174
    15.5800       202
    15.6000       222
    15.6200       268
    15.6400       224
    15.6600       240
    15.6800       208
    15.7000       194
    15.7200       158
    15.7400       130
    15.7600       116
    15.7800       108
    15.8000        86
    15.8200        70
    15.8400        68
    15.8600        78
    15.8800        60
    15.9000        74
    15.9200        58
    15.9400        62
    15.9600        72
    15.9800        66
    16.0000        78
    16.0200        80
    16.0400        62
    16.0600        62
    16.0800        68
    16.1000        80
    16.1200        66
    16.1400        92
    16.1600        68
    16.1800        80
    16.2000        70
    16.2200        90
    16.2400        82
    16.2600        94
    16.2800        84
    16.3000        66
    16.3200        62
    16.3400        82
    16.3600        52
    16.3800        64
    16.4000        80
    16.4200        62
    16.4400        56
    16.4600        76
    16.4800        74
    16.5000        58
    16.5200        58
    16.5400        66
    16.5600        56
    16.5800        70
    16.6000        70
    16.6200        66
    16.6400        76
    16.6600        70
    16.6800        62
    16.7000        90
    16.7200        70
    16.7400        74
    16.7600        68
    16.7800        74
    16.8000        74
    16.8200        74
    16.8400        78
    16.8600        64
    16.8800        66
    16.9000        80
    16.9200        64
    16.9400        88
    16.9600        82
    16.9800        68
    17.0000        74
    17.0200        64
    17.0400        76
    17.0600        72
    17.0800       100
    17.1000        82
    17.1200       106
    17.1400       108
    17.1600       110
    17.1800       110
    17.2000        94
    17.2200       122
    17.2400       102
    17.2600       104
    17.2800       136
    17.3000       128
    17.3200       146
    17.3400       164
    17.3600       174
    17.3800       216
    17.4000       246
    17.4200       254
    17.4400       302
    17.4600       336
    17.4800       366
    17.5000       368
    17.5200       436
    17.5400       484
    17.5600       522
    17.5800       542
    17.6000       586
    17.6200       646
    17.6400       670
    17.6600       762
    17.6800       822
    17.7000       788
    17.7200       858
    17.7400       908
    17.7600       992
    17.7800       988
    17.8000      1042
    17.8200      1086
    17.8400      1086
    17.8600      1064
    17.8800      1054
    17.9000      1016
    17.9200       968
    17.9400       886
    17.9600       760
    17.9800       786
    18.0000       628
    18.0200       542
    18.0400       462
    18.0600       404
    18.0800       316
    18.1000       244
    18.1200       224
    18.1400       188
    18.1600       172
    18.1800       156
    18.2000       148
    18.2200       108
    18.2400        96
    18.2600       108
    18.2800        96
    18.3000        82
    18.3200        94
    18.3400        78
    18.3600        70
    18.3800        80
    18.4000        70
    18.4200        64
    18.4400        64
    18.4600        84
    18.4800        82
    18.5000        66
    18.5200        74
    18.5400        78
    18.5600        54
    18.5800        52
    18.6000        62
    18.6200        66
    18.6400        66
    18.6600        58
    18.6800        62
    18.7000        64
    18.7200        68
    18.7400        62
    18.7600        54
    18.7800        54
    18.8000        76
    18.8200        58
    18.8400        48
    18.8600        52
    18.8800        56
    18.9000        56
    18.9200        46
    18.9400        58
    18.9600        38
    18.9800        60
    19.0000        62
    19.0200        52
    19.0400        64
    19.0600        46
    19.0800        56
    19.1000        42
    19.1200        48
    19.1400        48
    19.1600        58
    19.1800        56
    19.2000        46
    19.2200        46
    19.2400        48
    19.2600        62
    19.2800        56
    19.3000        44
    19.3200        58
    19.3400        56
    19.3600        38
    19.3800        62
    19.4000        50
    19.4200        58
    19.4400        68
    19.4600        54
    19.4800        50
    19.5000        72
    19.5200        60
    19.5400        54
    19.5600        48
    19.5800        68
    19.6000        58
    19.6200        42
    19.6400        46
    19.6600        56
    19.6800        46
    19.7000        48
    19.7200        44
    19.7400        48
    19.7600        42
    19.7800        56
    19.8000        48
    19.8200        42
    19.8400        42
    19.8600        52
    19.8800        60
    19.9000        44
    19.9200        50
    19.9400        44
    19.9600        46
    19.9800        62
    20.0000        48
    20.0200        54
    20.0400        44
    20.0600        50
    20.0800        44
    20.1000        50
    20.1200        54
    20.1400        40
    20.1600        42
    20.1800        50
    20.2000        44
    20.2200        56
    20.2400        56
    20.2600        46
    20.2800        70
    20.3000        58
    20.3200        50
    20.3400        46
    20.3600        40
    20.3800        42
    20.4000        44
    20.4200        56
    20.4400        54
    20.4600        64
    20.4800        56
    20.5000        50
    20.5200        54
    20.5400        62
    20.5600        52
    20.5800        34
    20.6000        48
    20.6200        58
    20.6400        50
    20.6600        50
    20.6800        52
    20.7000        42
    20.7200        48
    20.7400        58
    20.7600        46
    20.7800        46
    20.8000        46
    20.8200        50
    20.8400        46
    20.8600        42
    20.8800        54
    20.9000        52
    20.9200        30
    20.9400        68
    20.9600        40
    20.9800        58
    21.0000        54
    21.0200        52
    21.0400        40
    21.0600        40
    21.0800        46
    21.1000        38
    21.1200        44
    21.1400        58
    21.1600        38
    21.1800        44
    21.2000        44
    21.2200        38
    21.2400        36
    21.2600        42
    21.2800        48
    21.3000        52
    21.3200        44
    21.3400        42
    21.3600        40
    21.3800        42
    21.4000        44
    21.4200        42
    21.4400        34
    21.4600        42
    21.4800        46
    21.5000        50
    21.5200        46
    21.5400        68
    21.5600        44
    21.5800        50
    21.6000        54
    21.6200        50
    21.6400        54
    21.6600        54
    21.6800        54
    21.7000        56
    21.7200        48
    21.7400        54
    21.7600        40
    21.7800        56
    21.8000        50
    21.8200        36
    21.8400        40
    21.8600        36
    21.8800        48
    21.9000        50
    21.9200        48
    21.9400        38
    21.9600        50
    21.9800        46
    22.0000        44
    22.0200        56
    22.0400        46
    22.0600        58
    22.0800        36
    22.1000        56
    22.1200        46
    22.1400        44
    22.1600        44
    22.1800        40
    22.2000        60
    22.2200        52
    22.2400        50
    22.2600        44
    22.2800        44
    22.3000        42
    22.3200        42
    22.3400        40
    22.3600        36
    22.3800        36
    22.4000        50
    22.4200        32
    22.4400        52
    22.4600        60
    22.4800        42
    22.5000        54
    22.5200        42
    22.5400        50
    22.5600        56
    22.5800        42
    22.6000        62
    22.6200        48
    22.6400        66
    22.6600        50
    22.6800        62
    22.7000        66
    22.7200        88
    22.7400        98
    22.7600        90
    22.7800        88
    22.8000        94
    22.8200        90
    22.8400        98
    22.8600        78
    22.8800        84
    22.9000        68
    22.9200        58
    22.9400        50
    22.9600        56
    22.9800        42
    23.0000        66
    23.0200        54
    23.0400        52
    23.0600        52
    23.0800        36
    23.1000        46
    23.1200        54
    23.1400        62
    23.1600        46
    23.1800        46
    23.2000        52
    23.2200        58
    23.2400        44
    23.2600        38
    23.2800        60
    23.3000        56
    23.3200        56
    23.3400        40
    23.3600        40
    23.3800        58
    23.4000        52
    23.4200        44
    23.4400        38
    23.4600        52
    23.4800        46
    23.5000        62
    23.5200        46
    23.5400        40
    23.5600        48
    23.5800        42
    23.6000        52
    23.6200        42
    23.6400        40
    23.6600        40
    23.6800        58
    23.7000        44
    23.7200        58
    23.7400        42
    23.7600        58
    23.7800        36
    23.8000        42
    23.8200        50
    23.8400        42
    23.8600        50
    23.8800        52
    23.9000        52
    23.9200        54
    23.9400        62
    23.9600        42
    23.9800        40
    24.0000        60
    24.0200        48
    24.0400        62
    24.0600        50
    24.0800        48
    24.1000        56
    24.1200        46
    24.1400        60
    24.1600        64
    24.1800        66
    24.2000        62
    24.2200        72
    24.2400        58
    24.2600        56
    24.2800        56
    24.3000        58
    24.3200        50
    24.3400        64
    24.3600        64
    24.3800        62
    24.4000        64
    24.4200        70
    24.4400        76
    24.4600        70
    24.4800        68
    24.5000        80
    24.5200        64
    24.5400        60
    24.5600        88
    24.5800        76
    24.6000        74
    24.6200        72
    24.6400        80
    24.6600        72
    24.6800        80
    24.7000        76
    24.7200        82
    24.7400        84
    24.7600        96
    24.7800        90
    24.8000       110
    24.8200       106
    24.8400       138
    24.8600       130
    24.8800       108
    24.9000       114
    24.9200       132
    24.9400       114
    24.9600       142
    24.9800       168
    25.0000       150
    25.0200       188
    25.0400       224
    25.0600       284
    25.0800       252
    25.1000       312
    25.1200       386
    25.1400       416
    25.1600       504
    25.1800       632
    25.2000       840
    25.2200       874
    25.2400      1050
    25.2600      1206
    25.2800      1330
    25.3000      1368
    25.3200      1354
    25.3400      1482
    25.3600      1236
    25.3800      1158
    25.4000       990
    25.4200       872
    25.4400       592
    25.4600       418
    25.4800       318
    25.5000       262
    25.5200       214
    25.5400       176
    25.5600       168
    25.5800       144
    25.6000       140
    25.6200       116
    25.6400       126
    25.6600        94
    25.6800        88
    25.7000        92
    25.7200        76
    25.7400        64
    25.7600        82
    25.7800        66
    25.8000        72
    25.8200        72
    25.8400        70
    25.8600        64
    25.8800        62
    25.9000        66
    25.9200        60
    25.9400        56
    25.9600        56
    25.9800        42
    26.0000        52
    26.0200        50
    26.0400        50
    26.0600        52
    26.0800        56
    26.1000        56
    26.1200        44
    26.1400        50
    26.1600        42
    26.1800        50
    26.2000        70
    26.2200        50
    26.2400        56
    26.2600        38
    26.2800        50
    26.3000        46
    26.3200        54
    26.3400        38
    26.3600        46
    26.3800        50
    26.4000        48
    26.4200        44
    26.4400        66
    26.4600        44
    26.4800        40
    26.5000        56
    26.5200        44
    26.5400        54
    26.5600        56
    26.5800        46
    26.6000        42
    26.6200        52
    26.6400        46
    26.6600        48
    26.6800        34
    26.7000        46
    26.7200        46
    26.7400        42
    26.7600        36
    26.7800        34
    26.8000        32
    26.8200        40
    26.8400        52
    26.8600        54
    26.8800        32
    26.9000        36
    26.9200        34
    26.9400        50
    26.9600        52
    26.9800        42
    27.0000        44
    27.0200        46
    27.0400        52
    27.0600        56
    27.0800        46
    27.1000        50
    27.1200        42
    27.1400        32
    27.1600        50
    27.1800        52
    27.2000        28
    27.2200        34
    27.2400        40
    27.2600        52
    27.2800        60
    27.3000        46
    27.3200        46
    27.3400        32
    27.3600        50
    27.3800        40
    27.4000        46
    27.4200        42
    27.4400        48
    27.4600        46
    27.4800        44
    27.5000        40
    27.5200        42
    27.5400        42
    27.5600        40
    27.5800        40
    27.6000        38
    27.6200        46
    27.6400        54
    27.6600        32
    27.6800        44
    27.7000        56
    27.7200        54
    27.7400        36
    27.7600        36
    27.7800        38
    27.8000        48
    27.8200        40
    27.8400        42
    27.8600        54
    27.8800        48
    27.9000        60
    27.9200        46
    27.9400        56
    27.9600        56
    27.9800        48
    28.0000        68
    28.0200        54
    28.0400        44
    28.0600        44
    28.0800        46
    28.1000        52
    28.1200        44
    28.1400        40
    28.1600        42
    28.1800        50
    28.2000        52
    28.2200        54
    28.2400        56
    28.2600        62
    28.2800        68
    28.3000        68
    28.3200        60
    28.3400        76
    28.3600        50
    28.3800        56
    28.4000        68
    28.4200        80
    28.4400        74
    28.4600        66
    28.4800        72
    28.5000        92
    28.5200        88
    28.5400        78
    28.5600        74
    28.5800        90
    28.6000        74
    28.6200        74
    28.6400        70
    28.6600        80
    28.6800        82
    28.7000        84
    28.7200        92
    28.7400       110
    28.7600       112
    28.7800       110
    28.8000       120
    28.8200       128
    28.8400       136
    28.8600       180
    28.8800       152
    28.9000       160
    28.9200       168
    28.9400       188
    28.9600       228
    28.9800       228
    29.0000       228
    29.0200       230
    29.0400       206
    29.0600       252
    29.0800       278
    29.1000       294
    29.1200       320
    29.1400       312
    29.1600       278
    29.1800       290
    29.2000       376
    29.2200       330
    29.2400       326
    29.2600       344
    29.2800       306
    29.3000       320
    29.3200       380
    29.3400       332
    29.3600       438
    29.3800       398
    29.4000       390
    29.4200       412
    29.4400       410
    29.4600       458
    29.4800       488
    29.5000       490
    29.5200       542
    29.5400       530
    29.5600       520
    29.5800       588
    29.6000       574
    29.6200       574
    29.6400       632
    29.6600       646
    29.6800       658
    29.7000       694
    29.7200       762
    29.7400       756
    29.7600       794
    29.7800       818
    29.8000       826
    29.8200       868
    29.8400       922
    29.8600       896
    29.8800       924
    29.9000       936
    29.9200       890
    29.9400       954
    29.9600       938
    29.9800       918
    30.0000       870
    30.0200       838
    30.0400       836
    30.0600       816
    30.0800       764
    30.1000       752
    30.1200       750
    30.1400       718
    30.1600       600
    30.1800       592
    30.2000       598
    30.2200       476
    30.2400       496
    30.2600       448
    30.2800       376
    30.3000       358
    30.3200       320
    30.3400       284
    30.3600       250
    30.3800       214
    30.4000       190
    30.4200       172
    30.4400       148
    30.4600       136
    30.4800       104
    30.5000       126
    30.5200       120
    30.5400       102
    30.5600        82
    30.5800        88
    30.6000        70
    30.6200        88
    30.6400        80
    30.6600        80
    30.6800        62
    30.7000        76
    30.7200        66
    30.7400        68
    30.7600        54
    30.7800        60
    30.8000        58
    30.8200        52
    30.8400        62
    30.8600        58
    30.8800        54
    30.9000        74
    30.9200        76
    30.9400        58
    30.9600        70
    30.9800        92
    31.0000        90
    31.0200       108
    31.0400       108
    31.0600       132
    31.0800       158
    31.1000       164
    31.1200       198
    31.1400       236
    31.1600       252
    31.1800       314
    31.2000       352
    31.2200       358
    31.2400       390
    31.2600       416
    31.2800       400
    31.3000       326
    31.3200       300
    31.3400       264
    31.3600       190
    31.3800       194
    31.4000       124
    31.4200       106
    31.4400       100
    31.4600        90
    31.4800        94
    31.5000        84
    31.5200        72
    31.5400        92
    31.5600        88
    31.5800        94
    31.6000        84
    31.6200       102
    31.6400       106
    31.6600       122
    31.6800       106
    31.7000       126
    31.7200       122
    31.7400       120
    31.7600       120
    31.7800       110
    31.8000       104
    31.8200       102
    31.8400       122
    31.8600       102
    31.8800       110
    31.9000        84
    31.9200        76
    31.9400        64
    31.9600        58
    31.9800        70
    32.0000        60
    32.0200        50
    32.0400        46
    32.0600        36
    32.0800        36
    32.1000        40
    32.1200        42
    32.1400        48
    32.1600        36
    32.1800        38
    32.2000        30
    32.2200        26
    32.2400        28
    32.2600        38
    32.2800        38
    32.3000        44
    32.3200        32
    32.3400        38
    32.3600        42
    32.3800        32
    32.4000        26
    32.4200        38
    32.4400        36
    32.4600        36
    32.4800        38
    32.5000        28
    32.5200        26
    32.5400        38
    32.5600        44
    32.5800        42
    32.6000        20
    32.6200        40
    32.6400        32
    32.6600        42
    32.6800        36
    32.7000        38
    32.7200        34
    32.7400        38
    32.7600        20
    32.7800        38
    32.8000        36
    32.8200        38
    32.8400        26
    32.8600        40
    32.8800        40
    32.9000        24
    32.9200        28
    32.9400        32
    32.9600        38
    32.9800        38
    33.0000        30
    33.0200        24
    33.0400        32
    33.0600        38
    33.0800        42
    33.1000        36
    33.1200        28
    33.1400        32
    33.1600        46
    33.1800        24
    33.2000        32
    33.2200        34
    33.2400        28
    33.2600        32
    33.2800        18
    33.3000        32
    33.3200        34
    33.3400        30
    33.3600        30
    33.3800        36
    33.4000        32
    33.4200        26
    33.4400        34
    33.4600        44
    33.4800        28
    33.5000        42
    33.5200        38
    33.5400        32
    33.5600        32
    33.5800        28
    33.6000        28
    33.6200        36
    33.6400        28
    33.6600        32
    33.6800        28
    33.7000        42
    33.7200        36
    33.7400        32
    33.7600        28
    33.7800        40
    33.8000        36
    33.8200        32
    33.8400        30
    33.8600        40
    33.8800        26
    33.9000        26
    33.9200        32
    33.9400        28
    33.9600        34
    33.9800        38
    34.0000        40
    34.0200        34
    34.0400        38
    34.0600        30
    34.0800        28
    34.1000        24
    34.1200        28
    34.1400        28
    34.1600        32
    34.1800        26
    34.2000        28
    34.2200        36
    34.2400        36
    34.2600        30
    34.2800        26
    34.3000        24
    34.3200        12
    34.3400        20
    34.3600        32
    34.3800        32
    34.4000        30
    34.4200        30
    34.4400        18
    34.4600        26
    34.4800        38
    34.5000        34
    34.5200        22
    34.5400        26
    34.5600        32
    34.5800        40
    34.6000        36
    34.6200        32
    34.6400        34
    34.6600        36
    34.6800        28
    34.7000        32
    34.7200        32
    34.7400        28
    34.7600        30
    34.7800        32
    34.8000        28
    34.8200        32
    34.8400        38
    34.8600        24
    34.8800        32
    34.9000        26
    34.9200        26
    34.9400        24
    34.9600        28
    34.9800        26
    35.0000        44
    35.0200        40
    35.0400        42
    35.0600        34
    35.0800        22
    35.1000        26
    35.1200        34
    35.1400        32
    35.1600        32
    35.1800        38
    35.2000        32
    35.2200        34
    35.2400        24
    35.2600        30
    35.2800        38
    35.3000        42
    35.3200        24
    35.3400        34
    35.3600        22
    35.3800        36
    35.4000        32
    35.4200        50
    35.4400        26
    35.4600        38
    35.4800        28
    35.5000        36
    35.5200        36
    35.5400        36
    35.5600        30
    35.5800        36
    35.6000        32
    35.6200        44
    35.6400        44
    35.6600        38
    35.6800        40
    35.7000        52
    35.7200        38
    35.7400        38
    35.7600        44
    35.7800        32
    35.8000        40
    35.8200        36
    35.8400        34
    35.8600        42
    35.8800        62
    35.9000        52
    35.9200        60
    35.9400        40
    35.9600        54
    35.9800        58
    36.0000        80
    36.0200        74
    36.0400        98
    36.0600        94
    36.0800        76
    36.1000       110
    36.1200       138
    36.1400       128
    36.1600       122
    36.1800       134
    36.2000       134
    36.2200       134
    36.2400       126
    36.2600       114
    36.2800        78
    36.3000        88
    36.3200        72
    36.3400        48
    36.3600        56
    36.3800        50
    36.4000        48
    36.4200        52
    36.4400        34
    36.4600        26
    36.4800        36
    36.5000        42
    36.5200        38
    36.5400        48
    36.5600        40
    36.5800        36
    36.6000        44
    36.6200        50
    36.6400        40
    36.6600        44
    36.6800        40
    36.7000        34
    36.7200        32
    36.7400        32
    36.7600        34
    36.7800        28
    36.8000        36
    36.8200        22
    36.8400        30
    36.8600        26
    36.8800        30
    36.9000        38
    36.9200        26
    36.9400        24
    36.9600        32
    36.9800        42
    37.0000        26
    37.0200        20
    37.0400        38
    37.0600        28
    37.0800        34
    37.1000        34
    37.1200        26
    37.1400        36
    37.1600        26
    37.1800        34
    37.2000        36
    37.2200        22
    37.2400        32
    37.2600        28
    37.2800        28
    37.3000        24
    37.3200        32
    37.3400        26
    37.3600        32
    37.3800        28
    37.4000        32
    37.4200        30
    37.4400        34
    37.4600        20
    37.4800        22
    37.5000        26
    37.5200        36
    37.5400        28
    37.5600        38
    37.5800        30
    37.6000        30
    37.6200        26
    37.6400        28
    37.6600        26
    37.6800        22
    37.7000        38
    37.7200        26
    37.7400        42
    37.7600        26
    37.7800        52
    37.8000        30
    37.8200        26
    37.8400        30
    37.8600        32
    37.8800        36
    37.9000        34
    37.9200        38
    37.9400        36
    37.9600        36
    37.9800        42
    38.0000        34
    38.0200        30
    38.0400        32
    38.0600        26
    38.0800        36
    38.1000        42
    38.1200        38
    38.1400        44
    38.1600        42
    38.1800        38
    38.2000        58
    38.2200        46
    38.2400        44
    38.2600        54
    38.2800        52
    38.3000        62
    38.3200        68
    38.3400        84
    38.3600        96
    38.3800        96
    38.4000       120
    38.4200       140
    38.4400       170
    38.4600       206
    38.4800       196
    38.5000       228
    38.5200       260
    38.5400       304
    38.5600       226
    38.5800       252
    38.6000       198
    38.6200       180
    38.6400       144
    38.6600       142
    38.6800       136
    38.7000        96
    38.7200        52
    38.7400        58
    38.7600        52
    38.7800        40
    38.8000        38
    38.8200        44
    38.8400        38
    38.8600        32
    38.8800        48
    38.9000        38
    38.9200        36
    38.9400        34
    38.9600        44
    38.9800        32
    39.0000        40
    39.0200        46
    39.0400        32
    39.0600        48
    39.0800        44
    39.1000        30
    39.1200        36
    39.1400        24
    39.1600        50
    39.1800        46
    39.2000        40
    39.2200        34
    39.2400        42
    39.2600        46
    39.2800        52
    39.3000        42
    39.3200        50
    39.3400        38
    39.3600        46
    39.3800        50
    39.4000        58
    39.4200        50
    39.4400        54
    39.4600        38
    39.4800        48
    39.5000        56
    39.5200        46
    39.5400        50
    39.5600        42
    39.5800        34
    39.6000        48
    39.6200        56
    39.6400        54
    39.6600        64
    39.6800        58
    39.7000        82
    39.7200        82
    39.7400        84
    39.7600       102
    39.7800       112
    39.8000       128
    39.8200       148
    39.8400       158
    39.8600       172
    39.8800       204
    39.9000       242
    39.9200       258
    39.9400       304
    39.9600       314
    39.9800       340
    40.0000       336
    40.0200       384
    40.0400       396
    40.0600       348
    40.0800       416
    40.1000       376
    40.1200       402
    40.1400       358
    40.1600       334
    40.1800       360
    40.2000       294
    40.2200       296
    40.2400       246
    40.2600       248
    40.2800       204
    40.3000       196
    40.3200       204
    40.3400       190
    40.3600       158
    40.3800       160
    40.4000       156
    40.4200       142
    40.4400       146
    40.4600       118
    40.4800       134
    40.5000       118
    40.5200       138
    40.5400       160
    40.5600       156
    40.5800       174
    40.6000       190
    40.6200       232
    40.6400       224
    40.6600       236
    40.6800       250
    40.7000       294
    40.7200       284
    40.7400       274
    40.7600       240
    40.7800       248
    40.8000       220
    40.8200       180
    40.8400       144
    40.8600       136
    40.8800       120
    40.9000        96
    40.9200        84
    40.9400        66
    40.9600        74
    40.9800        70
    41.0000        52
    41.0200        72
    41.0400        70
    41.0600        94
    41.0800        70
    41.1000        96
    41.1200        98
    41.1400       114
    41.1600       114
    41.1800       120
    41.2000       128
    41.2200       144
    41.2400       118
    41.2600       110
    41.2800        84
    41.3000        84
    41.3200        78
    41.3400        90
    41.3600        74
    41.3800        60
    41.4000        46
    41.4200        44
    41.4400        42
    41.4600        26
    41.4800        44
    41.5000        28
    41.5200        30
    41.5400        28
    41.5600        32
    41.5800        38
    41.6000        38
    41.6200        36
    41.6400        22
    41.6600        42
    41.6800        32
    41.7000        44
    41.7200        28
    41.7400        34
    41.7600        32
    41.7800        32
    41.8000        26
    41.8200        26
    41.8400        30
    41.8600        34
    41.8800        26
    41.9000        28
    41.9200        26
    41.9400        26
    41.9600        22
    41.9800        20
    42.0000        36
    42.0200        22
    42.0400        40
    42.0600        28
    42.0800        24
    42.1000        32
    42.1200        40
    42.1400        32
    42.1600        30
    42.1800        26
    42.2000        26
    42.2200        30
    42.2400        38
    42.2600        30
    42.2800        26
    42.3000        24
    42.3200        38
    42.3400        42
    42.3600        24
    42.3800        28
    42.4000        36
    42.4200        34
    42.4400        30
    42.4600        34
    42.4800        38
    42.5000        30
    42.5200        40
    42.5400        32
    42.5600        38
    42.5800        30
    42.6000        42
    42.6200        26
    42.6400        32
    42.6600        40
    42.6800        38
    42.7000        44
    42.7200        32
    42.7400        32
    42.7600        40
    42.7800        36
    42.8000        26
    42.8200        38
    42.8400        46
    42.8600        46
    42.8800        50
    42.9000        34
    42.9200        48
    42.9400        34
    42.9600        38
    42.9800        48
    43.0000        28
    43.0200        42
    43.0400        48
    43.0600        56
    43.0800        56
    43.1000        56
    43.1200        86
    43.1400        86
    43.1600       114
    43.1800       108
    43.2000       120
    43.2200       120
    43.2400       108
    43.2600       122
    43.2800       106
    43.3000        96
    43.3200        86
    43.3400        84
    43.3600        68
    43.3800        60
    43.4000        58
    43.4200        38
    43.4400        42
    43.4600        42
    43.4800        34
    43.5000        36
    43.5200        32
    43.5400        26
    43.5600        26
    43.5800        42
    43.6000        24
    43.6200        40
    43.6400        26
    43.6600        32
    43.6800        38
    43.7000        26
    43.7200        36
    43.7400        38
    43.7600        42
    43.7800        28
    43.8000        48
    43.8200        24
    43.8400        30
    43.8600        38
    43.8800        28
    43.9000        28
    43.9200        36
    43.9400        30
    43.9600        32
    43.9800        34
    44.0000        34
    44.0200        26
    44.0400        36
    44.0600        38
    44.0800        16
    44.1000        24
    44.1200        34
    44.1400        32
    44.1600        34
    44.1800        26
    44.2000        28
    44.2200        36
    44.2400        30
    44.2600        34
    44.2800        32
    44.3000        34
    44.3200        22
    44.3400        32
    44.3600        32
    44.3800        28
    44.4000        32
    44.4200        36
    44.4400        38
    44.4600        24
    44.4800        38
    44.5000        18
    44.5200        30
    44.5400        34
    44.5600        34
    44.5800        26
    44.6000        34
    44.6200        30
    44.6400        24
    44.6600        26
    44.6800        24
    44.7000        36
    44.7200        36
    44.7400        44
    44.7600        26
    44.7800        34
    44.8000        30
    44.8200        24
    44.8400        26
    44.8600        22
    44.8800        22
    44.9000        28
    44.9200        34
    44.9400        24
    44.9600        32
    44.9800        42
    45.0000        38
    45.0200        34
    45.0400        40
    45.0600        26
    45.0800        34
    45.1000        36
    45.1200        40
    45.1400        36
    45.1600        58
    45.1800        40
    45.2000        42
    45.2200        52
    45.2400        52
    45.2600        60
    45.2800        76
    45.3000        84
    45.3200        80
    45.3400        88
    45.3600       100
    45.3800        86
    45.4000        90
    45.4200        74
    45.4400        62
    45.4600        66
    45.4800        54
    45.5000        58
    45.5200        52
    45.5400        48
    45.5600        28
    45.5800        34
    45.6000        34
    45.6200        46
    45.6400        32
    45.6600        42
    45.6800        28
    45.7000        26
    45.7200        30
    45.7400        30
    45.7600        36
    45.7800        32
    45.8000        38
    45.8200        36
    45.8400        28
    45.8600        48
    45.8800        24
    45.9000        34
    45.9200        42
    45.9400        36
    45.9600        44
    45.9800        44
    46.0000        50
    46.0200        36
    46.0400        36
    46.0600        44
    46.0800        42
    46.1000        56
    46.1200        52
    46.1400        52
    46.1600        50
    46.1800        52
    46.2000        66
    46.2200        60
    46.2400        66
    46.2600        58
    46.2800        72
    46.3000        62
    46.3200        60
    46.3400        72
    46.3600        58
    46.3800        54
    46.4000        80
    46.4200        84
    46.4400        60
    46.4600        74
    46.4800        54
    46.5000        92
    46.5200        88
    46.5400        94
    46.5600       112
    46.5800       102
    46.6000       128
    46.6200       124
    46.6400       138
    46.6600       146
    46.6800       132
    46.7000       160
    46.7200       152
    46.7400       150
    46.7600       174
    46.7800       166
    46.8000       158
    46.8200       138
    46.8400       134
    46.8600       120
    46.8800       124
    46.9000       130
    46.9200       132
    46.9400       112
    46.9600       102
    46.9800        92
    47.0000       102
    47.0200       122
    47.0400       102
    47.0600        94
    47.0800        90
    47.1000        86
    47.1200        98
    47.1400        92
    47.1600        90
    47.1800        90
    47.2000       100
    47.2200        86
    47.2400       100
    47.2600       104
    47.2800       100
    47.3000       100
    47.3200       104
    47.3400       112
    47.3600       112
    47.3800       124
    47.4000       142
    47.4200       144
    47.4400       132
    47.4600       140
    47.4800       146
    47.5000       138
    47.5200       142
    47.5400       160
    47.5600       132
    47.5800       150
    47.6000       176
    47.6200       174
    47.6400       192
    47.6600       186
    47.6800       166
    47.7000       196
    47.7200       186
    47.7400       192
    47.7600       184
    47.7800       202
    47.8000       190
    47.8200       204
    47.8400       206
    47.8600       198
    47.8800       164
    47.9000       182
    47.9200       164
    47.9400       164
    47.9600       154
    47.9800       148
    48.0000       148
    48.0200       164
    48.0400       148
    48.0600       150
    48.0800       146
    48.1000       154
    48.1200       136
    48.1400       114
    48.1600       120
    48.1800       160
    48.2000       128
    48.2200       158
    48.2400       148
    48.2600       136
    48.2800       146
    48.3000       164
    48.3200       176
    48.3400       174
    48.3600       206
    48.3800       196
    48.4000       198
    48.4200       230
    48.4400       242
    48.4600       270
    48.4800       278
    48.5000       270
    48.5200       304
    48.5400       298
    48.5600       334
    48.5800       314
    48.6000       316
    48.6200       278
    48.6400       222
    48.6600       226
    48.6800       206
    48.7000       170
    48.7200       152
    48.7400       142
    48.7600       132
    48.7800        98
    48.8000        78
    48.8200        70
    48.8400        68
    48.8600        72
    48.8800        64
    48.9000        78
    48.9200        54
    48.9400        54
    48.9600        84
    48.9800        84
    49.0000        74
    49.0200        82
    49.0400        98
    49.0600        82
    49.0800        68
    49.1000        72
    49.1200        76
    49.1400        64
    49.1600        52
    49.1800        56
    49.2000        36
    49.2200        46
    49.2400        44
    49.2600        40
    49.2800        46
    49.3000        26
    49.3200        50
    49.3400        38
    49.3600        34
    49.3800        34
    49.4000        34
    49.4200        42
    49.4400        32
    49.4600        34
    49.4800        30
    49.5000        28
    49.5200        34
    49.5400        36
    49.5600        34
    49.5800        40
    49.6000        34
    49.6200        42
    49.6400        36
    49.6600        30
    49.6800        30
    49.7000        32
    49.7200        32
    49.7400        30
    49.7600        42
    49.7800        28
    49.8000        48
    49.8200        42
    49.8400        26
    49.8600        40
    49.8800        42
    49.9000        48
    49.9200        50
    49.9400        36
    49.9600        34
    49.9800        28
    50.0000        42
    50.0200        36
    50.0400        42
    50.0600        40
    50.0800        40
    50.1000        36
    50.1200        42
    50.1400        40
    50.1600        42
    50.1800        44
    50.2000        24
    50.2200        40
    50.2400        52
    50.2600        32
    50.2800        38
    50.3000        52
    50.3200        40
    50.3400        54
    50.3600        36
    50.3800        40
    50.4000        32
    50.4200        52
    50.4400        48
    50.4600        32
    50.4800        40
    50.5000        34
    50.5200        32
    50.5400        40
    50.5600        40
    50.5800        36
    50.6000        42
    50.6200        40
    50.6400        48
    50.6600        48
    50.6800        38
    50.7000        56
    50.7200        56
    50.7400        42
    50.7600        38
    50.7800        46
    50.8000        48
    50.8200        46
    50.8400        46
    50.8600        34
    50.8800        46
    50.9000        42
    50.9200        50
    50.9400        52
    50.9600        48
    50.9800        58
    51.0000        54
    51.0200        50
    51.0400        66
    51.0600        62
    51.0800        66
    51.1000        76
    51.1200        72
    51.1400        66
    51.1600        58
    51.1800        58
    51.2000        54
    51.2200        62
    51.2400        50
    51.2600        68
    51.2800        54
    51.3000        58
    51.3200        58
    51.3400        62
    51.3600        72
    51.3800        48
    51.4000        50
    51.4200        48
    51.4400        48
    51.4600        62
    51.4800        50
    51.5000        36
    51.5200        46
    51.5400        56
    51.5600        54
    51.5800        46
    51.6000        54
    51.6200        58
    51.6400        56
    51.6600        70
    51.6800        64
    51.7000        48
    51.7200        64
    51.7400        56
    51.7600        52
    51.7800        64
    51.8000        76
    51.8200        64
    51.8400        92
    51.8600        80
    51.8800        94
    51.9000        88
    51.9200        74
    51.9400       106
    51.9600       114
    51.9800       104
    52.0000       126
    52.0200       146
    52.0400       144
    52.0600       162
    52.0800       186
    52.1000       230
    52.1200       248
    52.1400       258
    52.1600       250
    52.1800       266
    52.2000       254
    52.2200       226
    52.2400       246
    52.2600       204
    52.2800       170
    52.3000       158
    52.3200       172
    52.3400       160
    52.3600       126
    52.3800       148
    52.4000       124
    52.4200       124
    52.4400       110
    52.4600       110
    52.4800       102
    52.5000        98
    52.5200        98
    52.5400        94
    52.5600        88
    52.5800       100
    52.6000        92
    52.6200        90
    52.6400        82
    52.6600        72
    52.6800        66
    52.7000        74
    52.7200        66
    52.7400        76
    52.7600        74
    52.7800        68
    52.8000        68
    52.8200        60
    52.8400        50
    52.8600        40
    52.8800        62
    52.9000        54
    52.9200        34
    52.9400        52
    52.9600        68
    52.9800        44
    53.0000        38
    53.0200        52
    53.0400        62
    53.0600        50
    53.0800        52
    53.1000        50
    53.1200        56
    53.1400        50
    53.1600        52
    53.1800        50
    53.2000        40
    53.2200        50
    53.2400        54
    53.2600        42
    53.2800        58
    53.3000        46
    53.3200        42
    53.3400        40
    53.3600        42
    53.3800        42
    53.4000        52
    53.4200        38
    53.4400        42
    53.4600        38
    53.4800        40
    53.5000        32
    53.5200        42
    53.5400        22
    53.5600        38
    53.5800        38
    53.6000        32
    53.6200        30
    53.6400        34
    53.6600        34
    53.6800        36
    53.7000        40
    53.7200        38
    53.7400        40
    53.7600        40
    53.7800        32
    53.8000        28
    53.8200        30
    53.8400        42
    53.8600        36
    53.8800        38
    53.9000        40
    53.9200        48
    53.9400        40
    53.9600        36
    53.9800        48
    54.0000        38
    54.0200        34
    54.0400        46
    54.0600        48
    54.0800        50
    54.1000        40
    54.1200        32
    54.1400        38
    54.1600        34
    54.1800        24
    54.2000        46
    54.2200        46
    54.2400        34
    54.2600        42
    54.2800        32
    54.3000        44
    54.3200        38
    54.3400        40
    54.3600        42
    54.3800        42
    54.4000        38
    54.4200        38
    54.4400        32
    54.4600        36
    54.4800        26
    54.5000        42
    54.5200        50
    54.5400        32
    54.5600        44
    54.5800        42
    54.6000        50
    54.6200        46
    54.6400        30
    54.6600        40
    54.6800        48
    54.7000        40
    54.7200        46
    54.7400        30
    54.7600        34
    54.7800        44
    54.8000        44
    54.8200        42
    54.8400        50
    54.8600        46
    54.8800        38
    54.9000        44
    54.9200        50
    54.9400        46
    54.9600        38
    54.9800        54
    55.0000        56
    55.0200        50
    55.0400        52
    55.0600        50
    55.0800        58
    55.1000        50
    55.1200        64
    55.1400        70
    55.1600        62
    55.1800        58
    55.2000        66
    55.2200        52
    55.2400        62
    55.2600        66
    55.2800        62
    55.3000        68
    55.3200        72
    55.3400        52
    55.3600        70
    55.3800        66
    55.4000        60
    55.4200        82
    55.4400        88
    55.4600        84
    55.4800       100
    55.5000       124
    55.5200       118
    55.5400       146
    55.5600       172
    55.5800       196
    55.6000       220
    55.6200       228
    55.6400       232
    55.6600       228
    55.6800       176
    55.7000       170
    55.7200       148
    55.7400       132
    55.7600       156
    55.7800       126
    55.8000       140
    55.8200        92
    55.8400        92
    55.8600        78
    55.8800        84
    55.9000        62
    55.9200        66
    55.9400        52
    55.9600        64
    55.9800        54
    56.0000        48
    56.0200        46
    56.0400        58
    56.0600        60
    56.0800        38
    56.1000        40
    56.1200        42
    56.1400        44
    56.1600        48
    56.1800        46
    56.2000        48
    56.2200        44
    56.2400        52
    56.2600        38
    56.2800        36
    56.3000        32
    56.3200        34
    56.3400        50
    56.3600        48
    56.3800        50
    56.4000        52
    56.4200        40
    56.4400        40
    56.4600        44
    56.4800        42
    56.5000        42
    56.5200        42
    56.5400        32
    56.5600        50
    56.5800        48
    56.6000        42
    56.6200        42
    56.6400        36
    56.6600        48
    56.6800        44
    56.7000        52
    56.7200        52
    56.7400        38
    56.7600        46
    56.7800        36
    56.8000        22
    56.8200        30
    56.8400        24
    56.8600        40
    56.8800        36
    56.9000        30
    56.9200        36
    56.9400        36
    56.9600        36
    56.9800        38
    57.0000        36
    57.0200        38
    57.0400        28
    57.0600        22
    57.0800        24
    57.1000        34
    57.1200        32
    57.1400        28
    57.1600        36
    57.1800        48
    57.2000        38
    57.2200        38
    57.2400        38
    57.2600        30
    57.2800        42
    57.3000        32
    57.3200        46
    57.3400        40
    57.3600        40
    57.3800        26
    57.4000        38
    57.4200        46
    57.4400        38
    57.4600        38
    57.4800        34
    57.5000        48
    57.5200        48
    57.5400        36
    57.5600        60
    57.5800        68
    57.6000        48
    57.6200        40
    57.6400        64
    57.6600        52
    57.6800        68
    57.7000        66
    57.7200        46
    57.7400        62
    57.7600        46
    57.7800        48
    57.8000        60
    57.8200        36
    57.8400        48
    57.8600        52
    57.8800        42
    57.9000        50
    57.9200        40
    57.9400        34
    57.9600        30
    57.9800        32
    58.0000        38
    58.0200        46
    58.0400        32
    58.0600        34
    58.0800        26
    58.1000        34
    58.1200        42
    58.1400        52
    58.1600        50
    58.1800        28
    58.2000        34
    58.2200        40
    58.2400        36
    58.2600        36
    58.2800        32
    58.3000        40
    58.3200        42
    58.3400        50
    58.3600        48
    58.3800        44
    58.4000        50
    58.4200        44
    58.4400        28
    58.4600        40
    58.4800        52
    58.5000        50
    58.5200        66
    58.5400        58
    58.5600        48
    58.5800        46
    58.6000        62
    58.6200        68
    58.6400        52
    58.6600        76
    58.6800        80
    58.7000        58
    58.7200        78
    58.7400        72
    58.7600        78
    58.7800        78
    58.8000       100
    58.8200        96
    58.8400       102
    58.8600       104
    58.8800       132
    58.9000       114
    58.9200       102
    58.9400        96
    58.9600        94
    58.9800        94
    59.0000        82
    59.0200       106
    59.0400       102
    59.0600        94
    59.0800        92
    59.1000        70
    59.1200        78
    59.1400        80
    59.1600        86
    59.1800        78
    59.2000        80
    59.2200        74
    59.2400        78
    59.2600        80
    59.2800        70
    59.3000        84
    59.3200        68
    59.3400        84
    59.3600        72
    59.3800        98
    59.4000        86
    59.4200        64
    59.4400        74
    59.4600        62
    59.4800        66
    59.5000        78
    59.5200        62
    59.5400        64
    59.5600        78
    59.5800        66
    59.6000        68
    59.6200        60
    59.6400        72
    59.6600        66
    59.6800        58
    59.7000        64
    59.7200        78
    59.7400        58
    59.7600        72
    59.7800        70
    59.8000        72
    59.8200        70
    59.8400        58
    59.8600        52
    59.8800        58
    59.9000        62
    59.9200        66
    59.9400        80
    59.9600        46
    59.9800        46
    60.0000        58
    60.0200        52
    60.0400        54
    60.0600        38
    60.0800        34
    60.1000        38
    60.1200        60
    60.1400        38
    60.1600        34
    60.1800        52
    60.2000        26
    60.2200        46
    60.2400        50
    60.2600        46
    60.2800        36
    60.3000        50
    60.3200        46
    60.3400        50
    60.3600        56
    60.3800        34
    60.4000        36
    60.4200        48
    60.4400        56
    60.4600        46
    60.4800        52
    60.5000        64
    60.5200        62
    60.5400       108
    60.5600        84
    60.5800        88
    60.6000        66
    60.6200        64
    60.6400        66
    60.6600        68
    60.6800        74
    60.7000        78
    60.7200        56
    60.7400        78
    60.7600        62
    60.7800        56
    60.8000        66
    60.8200        54
    60.8400        56
    60.8600        40
    60.8800        50
    60.9000        30
    60.9200        56
    60.9400        58
    60.9600        62
    60.9800        50
    61.0000        66
    61.0200        56
    61.0400        52
    61.0600        68
    61.0800        52
    61.1000        60
    61.1200        62
    61.1400        52
    61.1600        56
    61.1800        50
    61.2000        62
    61.2200        54
    61.2400        68
    61.2600        40
    61.2800        52
    61.3000        56
    61.3200        52
    61.3400        48
    61.3600        56
    61.3800        32
    61.4000        46
    61.4200        66
    61.4400        66
    61.4600        54
    61.4800        44
    61.5000        58
    61.5200        50
    61.5400        76
    61.5600        50
    61.5800        48
    61.6000        52
    61.6200        56
    61.6400        50
    61.6600        62
    61.6800        54
    61.7000        54
    61.7200        56
    61.7400        70
    61.7600        54
    61.7800        56
    61.8000        54
    61.8200        58
    61.8400        64
    61.8600        56
    61.8800        50
    61.9000        48
    61.9200        56
    61.9400        60
    61.9600        72
    61.9800        76
    62.0000        64
    62.0200        86
    62.0400        96
    62.0600        76
    62.0800        94
    62.1000       116
    62.1200       118
    62.1400       130
    62.1600       124
    62.1800       126
    62.2000       120
    62.2200       104
    62.2400        96
    62.2600       102
    62.2800       124
    62.3000       114
    62.3200       102
    62.3400       120
    62.3600        86
    62.3800       108
    62.4000       112
    62.4200       106
    62.4400        96
    62.4600        92
    62.4800       108
    62.5000       126
    62.5200       136
    62.5400       114
    62.5600       136
    62.5800       146
    62.6000       142
    62.6200       140
    62.6400       168
    62.6600       128
    62.6800       180
    62.7000       160
    62.7200       154
    62.7400       184
    62.7600       176
    62.7800       156
    62.8000       188
    62.8200       204
    62.8400       204
    62.8600       184
    62.8800       192
    62.9000       190
    62.9200       176
    62.9400       182
    62.9600       166
    62.9800       172
    63.0000       154
    63.0200       152
    63.0400       144
    63.0600       128
    63.0800       132
    63.1000       126
    63.1200       130
    63.1400        98
    63.1600       134
    63.1800       112
    63.2000        96
    63.2200       114
    63.2400        98
    63.2600        86
    63.2800        72
    63.3000        62
    63.3200        84
    63.3400        78
    63.3600        62
    63.3800        64
    63.4000        72
    63.4200        62
    63.4400        58
    63.4600        46
    63.4800        58
    63.5000        40
    63.5200        48
    63.5400        52
    63.5600        46
    63.5800        54
    63.6000        50
    63.6200        50
    63.6400        56
    63.6600        48
    63.6800        38
    63.7000        44
    63.7200        36
    63.7400        44
    63.7600        42
    63.7800        48
    63.8000        40
    63.8200        42
    63.8400        38
    63.8600        34
    63.8800        44
    63.9000        44
    63.9200        44
    63.9400        40
    63.9600        32
    63.9800        30
    64.0000        32
    64.0200        32
    64.0400        34
    64.0600        36
    64.0800        38
    64.1000        38
    64.1200        30
    64.1400        36
    64.1600        26
    64.1800        40
    64.2000        30
    64.2200        30
    64.2400        30
    64.2600        34
    64.2800        26
    64.3000        40
    64.3200        26
    64.3400        26
    64.3600        38
    64.3800        32
    64.4000        38
    64.4200        36
    64.4400        32
    64.4600        32
    64.4800        36
    64.5000        32
    64.5200        28
    64.5400        42
    64.5600        32
    64.5800        28
    64.6000        38
    64.6200        40
    64.6400        38
    64.6600        38
    64.6800        38
    64.7000        46
    64.7200        38
    64.7400        28
    64.7600        38
    64.7800        22
    64.8000        20
    64.8200        32
    64.8400        36
    64.8600        40
    64.8800        36
    64.9000        42
    64.9200        42
    64.9400        28
    64.9600        36
    64.9800        38
    65.0000        28
