/////////////////////////////////////////////////////////////////////////////////
/// Profile Data Ascii Dump (XRD)                                             ///
/////////////////////////////////////////////////////////////////////////////////

  Group     : Swayze
  Data      : GDS821
  File Name : GDS821.RAW

# Profile Datafile
          comment             = Stilbite 
          date & time         = 08-04-01 06:47:56 

# Measurement Condition
    X-ray tube
          target              = Cu 
          voltage             = 40.0 (kV)
          current             = 30.0 (mA)
    Slits
          divergence slit     = 2.00000 (deg) 
          scatter slit        = 2.00000 (deg) 
          receiving slit      = 0.15000 (mm)  
    Scanning
          drive axis          = Theta-2Theta 
          scan range          =    4.000 -   65.000 
          scan mode           = Continuous Scan 
          scan speed          =   2.0000 (deg/min) 
          sampling pitch      =   0.0200 (deg) 
          preset time         =   0.60 (sec) 

# Data      [ Total No. = 3051 ]
  <2Theta>   <   I   >
     4.0000       184
     4.0200       224
     4.0400       180
     4.0600       178
     4.0800       194
     4.1000       160
     4.1200       168
     4.1400       176
     4.1600       170
     4.1800       186
     4.2000       202
     4.2200       158
     4.2400       164
     4.2600       178
     4.2800       184
     4.3000       182
     4.3200       166
     4.3400       150
     4.3600       180
     4.3800       158
     4.4000       164
     4.4200       156
     4.4400       156
     4.4600       166
     4.4800       158
     4.5000       188
     4.5200       160
     4.5400       162
     4.5600       184
     4.5800       158
     4.6000       160
     4.6200       170
     4.6400       166
     4.6600       162
     4.6800       162
     4.7000       158
     4.7200       154
     4.7400       172
     4.7600       174
     4.7800       160
     4.8000       158
     4.8200       162
     4.8400       154
     4.8600       158
     4.8800       166
     4.9000       166
     4.9200       160
     4.9400       166
     4.9600       162
     4.9800       154
     5.0000       152
     5.0200       166
     5.0400       146
     5.0600       152
     5.0800       146
     5.1000       150
     5.1200       162
     5.1400       150
     5.1600       142
     5.1800       152
     5.2000       130
     5.2200       126
     5.2400       154
     5.2600       150
     5.2800       160
     5.3000       162
     5.3200       178
     5.3400       164
     5.3600       142
     5.3800       140
     5.4000       162
     5.4200       134
     5.4400       158
     5.4600       140
     5.4800       150
     5.5000       148
     5.5200       156
     5.5400       154
     5.5600       158
     5.5800       172
     5.6000       142
     5.6200       148
     5.6400       158
     5.6600       152
     5.6800       174
     5.7000       154
     5.7200       144
     5.7400       144
     5.7600       154
     5.7800       136
     5.8000       162
     5.8200       172
     5.8400       156
     5.8600       168
     5.8800       158
     5.9000       170
     5.9200       152
     5.9400       132
     5.9600       144
     5.9800       142
     6.0000       166
     6.0200       146
     6.0400       144
     6.0600       152
     6.0800       150
     6.1000       150
     6.1200       136
     6.1400       154
     6.1600       142
     6.1800       156
     6.2000       156
     6.2200       122
     6.2400       130
     6.2600       140
     6.2800       144
     6.3000       136
     6.3200       142
     6.3400       136
     6.3600       144
     6.3800       142
     6.4000       120
     6.4200       144
     6.4400       138
     6.4600       128
     6.4800       124
     6.5000       116
     6.5200       130
     6.5400       138
     6.5600       140
     6.5800       164
     6.6000       140
     6.6200       140
     6.6400       116
     6.6600       132
     6.6800       122
     6.7000       112
     6.7200       136
     6.7400       130
     6.7600       114
     6.7800       142
     6.8000       112
     6.8200       132
     6.8400       128
     6.8600       122
     6.8800       106
     6.9000       124
     6.9200       106
     6.9400       124
     6.9600       122
     6.9800       134
     7.0000       124
     7.0200       120
     7.0400       136
     7.0600        86
     7.0800       102
     7.1000       112
     7.1200       118
     7.1400       138
     7.1600       110
     7.1800       124
     7.2000       122
     7.2200       122
     7.2400       104
     7.2600       110
     7.2800       142
     7.3000       112
     7.3200       110
     7.3400       112
     7.3600       100
     7.3800       108
     7.4000       114
     7.4200       126
     7.4400       106
     7.4600       104
     7.4800       118
     7.5000       112
     7.5200       114
     7.5400        94
     7.5600       132
     7.5800        92
     7.6000       110
     7.6200       108
     7.6400       108
     7.6600       108
     7.6800       106
     7.7000       112
     7.7200       110
     7.7400       134
     7.7600       102
     7.7800       106
     7.8000       116
     7.8200        92
     7.8400       104
     7.8600       126
     7.8800       104
     7.9000       118
     7.9200       106
     7.9400       102
     7.9600        90
     7.9800       110
     8.0000        94
     8.0200        92
     8.0400       108
     8.0600       116
     8.0800       110
     8.1000       102
     8.1200       116
     8.1400        98
     8.1600       110
     8.1800       126
     8.2000        96
     8.2200        96
     8.2400       112
     8.2600       106
     8.2800       112
     8.3000       110
     8.3200       132
     8.3400        92
     8.3600        94
     8.3800       122
     8.4000       116
     8.4200       104
     8.4400       100
     8.4600       134
     8.4800       124
     8.5000       110
     8.5200       120
     8.5400       110
     8.5600       120
     8.5800       112
     8.6000       110
     8.6200       122
     8.6400       136
     8.6600       122
     8.6800       130
     8.7000       116
     8.7200       128
     8.7400       122
     8.7600       116
     8.7800       134
     8.8000       138
     8.8200       122
     8.8400       140
     8.8600       122
     8.8800       136
     8.9000       130
     8.9200       158
     8.9400       132
     8.9600       136
     8.9800        98
     9.0000       150
     9.0200       140
     9.0400       128
     9.0600       126
     9.0800       118
     9.1000       140
     9.1200       150
     9.1400       154
     9.1600       172
     9.1800       196
     9.2000       184
     9.2200       182
     9.2400       220
     9.2600       240
     9.2800       236
     9.3000       262
     9.3200       244
     9.3400       278
     9.3600       272
     9.3800       312
     9.4000       354
     9.4200       404
     9.4400       418
     9.4600       432
     9.4800       422
     9.5000       452
     9.5200       490
     9.5400       484
     9.5600       546
     9.5800       622
     9.6000       848
     9.6200      1078
     9.6400      1308
     9.6600      1544
     9.6800      1598
     9.7000      1494
     9.7200      1442
     9.7400      1370
     9.7600      1218
     9.7800      1080
     9.8000       858
     9.8200       700
     9.8400       468
     9.8600       392
     9.8800       296
     9.9000       292
     9.9200       242
     9.9400       274
     9.9600       234
     9.9800       238
    10.0000       216
    10.0200       156
    10.0400       200
    10.0600       136
    10.0800       112
    10.1000       130
    10.1200       108
    10.1400       120
    10.1600        88
    10.1800        98
    10.2000        82
    10.2200       124
    10.2400       110
    10.2600        88
    10.2800        90
    10.3000        94
    10.3200        96
    10.3400        88
    10.3600       108
    10.3800        88
    10.4000       108
    10.4200       108
    10.4400        82
    10.4600       110
    10.4800        76
    10.5000        94
    10.5200        86
    10.5400       110
    10.5600        96
    10.5800        92
    10.6000        80
    10.6200       106
    10.6400        94
    10.6600       102
    10.6800        90
    10.7000        98
    10.7200        98
    10.7400        98
    10.7600        90
    10.7800        98
    10.8000        98
    10.8200       104
    10.8400        80
    10.8600       106
    10.8800       106
    10.9000        96
    10.9200        80
    10.9400        80
    10.9600       102
    10.9800        94
    11.0000        66
    11.0200        98
    11.0400        88
    11.0600        90
    11.0800       112
    11.1000        86
    11.1200        74
    11.1400        86
    11.1600        98
    11.1800       108
    11.2000        78
    11.2200        84
    11.2400        92
    11.2600        88
    11.2800       100
    11.3000        80
    11.3200        68
    11.3400        86
    11.3600       102
    11.3800        90
    11.4000        70
    11.4200        98
    11.4400        72
    11.4600        68
    11.4800        94
    11.5000        90
    11.5200        80
    11.5400        68
    11.5600        90
    11.5800        82
    11.6000        98
    11.6200        90
    11.6400        70
    11.6600        60
    11.6800        78
    11.7000        70
    11.7200        80
    11.7400        80
    11.7600        84
    11.7800        76
    11.8000        84
    11.8200       104
    11.8400        82
    11.8600        84
    11.8800        78
    11.9000        72
    11.9200        70
    11.9400        54
    11.9600        72
    11.9800        76
    12.0000        82
    12.0200        88
    12.0400        84
    12.0600        88
    12.0800        70
    12.1000        84
    12.1200        76
    12.1400        90
    12.1600        80
    12.1800        68
    12.2000        82
    12.2200        74
    12.2400        84
    12.2600        88
    12.2800        70
    12.3000        74
    12.3200       100
    12.3400        62
    12.3600        74
    12.3800        70
    12.4000        62
    12.4200        78
    12.4400        82
    12.4600        62
    12.4800        58
    12.5000        78
    12.5200        62
    12.5400        78
    12.5600        78
    12.5800        76
    12.6000        90
    12.6200        76
    12.6400        88
    12.6600        60
    12.6800        80
    12.7000        80
    12.7200        76
    12.7400        86
    12.7600        72
    12.7800        78
    12.8000        76
    12.8200        76
    12.8400        74
    12.8600        80
    12.8800        80
    12.9000        80
    12.9200        72
    12.9400        80
    12.9600        68
    12.9800        66
    13.0000        74
    13.0200        80
    13.0400        82
    13.0600        76
    13.0800        54
    13.1000        84
    13.1200        74
    13.1400        76
    13.1600        90
    13.1800        66
    13.2000        66
    13.2200        60
    13.2400        68
    13.2600        86
    13.2800        64
    13.3000        52
    13.3200        70
    13.3400        78
    13.3600        80
    13.3800        84
    13.4000        62
    13.4200        74
    13.4400        78
    13.4600        76
    13.4800        82
    13.5000        68
    13.5200        80
    13.5400        76
    13.5600        86
    13.5800        80
    13.6000        78
    13.6200        78
    13.6400        54
    13.6600        76
    13.6800        58
    13.7000        66
    13.7200        74
    13.7400        86
    13.7600        88
    13.7800        90
    13.8000        86
    13.8200       112
    13.8400        80
    13.8600        94
    13.8800        90
    13.9000        98
    13.9200        98
    13.9400        80
    13.9600        84
    13.9800        68
    14.0000        74
    14.0200        68
    14.0400        72
    14.0600        74
    14.0800        80
    14.1000        56
    14.1200        64
    14.1400        64
    14.1600        50
    14.1800        76
    14.2000        58
    14.2200        62
    14.2400        82
    14.2600        66
    14.2800        56
    14.3000        66
    14.3200        58
    14.3400        62
    14.3600        68
    14.3800        76
    14.4000        60
    14.4200        68
    14.4400        72
    14.4600        64
    14.4800        56
    14.5000        64
    14.5200        52
    14.5400        84
    14.5600        64
    14.5800        66
    14.6000        54
    14.6200        76
    14.6400        68
    14.6600        66
    14.6800        62
    14.7000        62
    14.7200        60
    14.7400        64
    14.7600        58
    14.7800        56
    14.8000        70
    14.8200        68
    14.8400        52
    14.8600        70
    14.8800        54
    14.9000        60
    14.9200        56
    14.9400        58
    14.9600        68
    14.9800        64
    15.0000        52
    15.0200        56
    15.0400        66
    15.0600        62
    15.0800        58
    15.1000        54
    15.1200        58
    15.1400        68
    15.1600        62
    15.1800        60
    15.2000        54
    15.2200        52
    15.2400        72
    15.2600        58
    15.2800        72
    15.3000        38
    15.3200        68
    15.3400        68
    15.3600        74
    15.3800        78
    15.4000        74
    15.4200        52
    15.4400        56
    15.4600        58
    15.4800        58
    15.5000        62
    15.5200        62
    15.5400        70
    15.5600        54
    15.5800        52
    15.6000        46
    15.6200        48
    15.6400        50
    15.6600        46
    15.6800        64
    15.7000        70
    15.7200        62
    15.7400        54
    15.7600        54
    15.7800        58
    15.8000        48
    15.8200        78
    15.8400        64
    15.8600        64
    15.8800        62
    15.9000        76
    15.9200        50
    15.9400        54
    15.9600        62
    15.9800        50
    16.0000        60
    16.0200        50
    16.0400        50
    16.0600        72
    16.0800        50
    16.1000        72
    16.1200        70
    16.1400        72
    16.1600        72
    16.1800        78
    16.2000        74
    16.2200        82
    16.2400        84
    16.2600        96
    16.2800        86
    16.3000       104
    16.3200        82
    16.3400       116
    16.3600        88
    16.3800       100
    16.4000       110
    16.4200        90
    16.4400        86
    16.4600        82
    16.4800        74
    16.5000       102
    16.5200        92
    16.5400        96
    16.5600       100
    16.5800        88
    16.6000        76
    16.6200        88
    16.6400       108
    16.6600       128
    16.6800       142
    16.7000       138
    16.7200       152
    16.7400       158
    16.7600       136
    16.7800       154
    16.8000       100
    16.8200       118
    16.8400       112
    16.8600        98
    16.8800        78
    16.9000        82
    16.9200        58
    16.9400        76
    16.9600        82
    16.9800        76
    17.0000        70
    17.0200        58
    17.0400        74
    17.0600        76
    17.0800        54
    17.1000        72
    17.1200        56
    17.1400        52
    17.1600        56
    17.1800        64
    17.2000        56
    17.2200        60
    17.2400        52
    17.2600        58
    17.2800        40
    17.3000        58
    17.3200        62
    17.3400        48
    17.3600        62
    17.3800        60
    17.4000        68
    17.4200        50
    17.4400        52
    17.4600        70
    17.4800        56
    17.5000        56
    17.5200        56
    17.5400        62
    17.5600        48
    17.5800        56
    17.6000        50
    17.6200        68
    17.6400        56
    17.6600        58
    17.6800        52
    17.7000        60
    17.7200        70
    17.7400        44
    17.7600        68
    17.7800        36
    17.8000        52
    17.8200        56
    17.8400        50
    17.8600        46
    17.8800        50
    17.9000        60
    17.9200        46
    17.9400        44
    17.9600        66
    17.9800        64
    18.0000        66
    18.0200        58
    18.0400        70
    18.0600        64
    18.0800        60
    18.1000        70
    18.1200        56
    18.1400        52
    18.1600        60
    18.1800        76
    18.2000        46
    18.2200        52
    18.2400        64
    18.2600        54
    18.2800        58
    18.3000        54
    18.3200        60
    18.3400        58
    18.3600        66
    18.3800        56
    18.4000        66
    18.4200        52
    18.4400        56
    18.4600        56
    18.4800        56
    18.5000        70
    18.5200        66
    18.5400        54
    18.5600        62
    18.5800        48
    18.6000        66
    18.6200        66
    18.6400        62
    18.6600        60
    18.6800        70
    18.7000        78
    18.7200        78
    18.7400        72
    18.7600        78
    18.7800        76
    18.8000       120
    18.8200        94
    18.8400       108
    18.8600       122
    18.8800       146
    18.9000       144
    18.9200       198
    18.9400       218
    18.9600       264
    18.9800       318
    19.0000       320
    19.0200       338
    19.0400       406
    19.0600       390
    19.0800       372
    19.1000       380
    19.1200       360
    19.1400       304
    19.1600       276
    19.1800       244
    19.2000       202
    19.2200       156
    19.2400       136
    19.2600       118
    19.2800       102
    19.3000        86
    19.3200       110
    19.3400       106
    19.3600       104
    19.3800       118
    19.4000       114
    19.4200       130
    19.4400       138
    19.4600       120
    19.4800       132
    19.5000       136
    19.5200       110
    19.5400        96
    19.5600       122
    19.5800       102
    19.6000        74
    19.6200        92
    19.6400        76
    19.6600        72
    19.6800        66
    19.7000        68
    19.7200        60
    19.7400        76
    19.7600        70
    19.7800        80
    19.8000        72
    19.8200        68
    19.8400        84
    19.8600        80
    19.8800        94
    19.9000        92
    19.9200        94
    19.9400       100
    19.9600        76
    19.9800        88
    20.0000        66
    20.0200        82
    20.0400        80
    20.0600        58
    20.0800        54
    20.1000        46
    20.1200        56
    20.1400        52
    20.1600        68
    20.1800        52
    20.2000        48
    20.2200        54
    20.2400        50
    20.2600        54
    20.2800        54
    20.3000        56
    20.3200        58
    20.3400        56
    20.3600        60
    20.3800        56
    20.4000        60
    20.4200        80
    20.4400        46
    20.4600        62
    20.4800        66
    20.5000        84
    20.5200        80
    20.5400        78
    20.5600        94
    20.5800        90
    20.6000        80
    20.6200       120
    20.6400       104
    20.6600       136
    20.6800       156
    20.7000       160
    20.7200       180
    20.7400       192
    20.7600       222
    20.7800       212
    20.8000       218
    20.8200       190
    20.8400       168
    20.8600       164
    20.8800       164
    20.9000       116
    20.9200        70
    20.9400        90
    20.9600        72
    20.9800        90
    21.0000        70
    21.0200        72
    21.0400        70
    21.0600        72
    21.0800        80
    21.1000        54
    21.1200        50
    21.1400        50
    21.1600        80
    21.1800        50
    21.2000        80
    21.2200        60
    21.2400        64
    21.2600        74
    21.2800        62
    21.3000        66
    21.3200        56
    21.3400        68
    21.3600        70
    21.3800        68
    21.4000        80
    21.4200        86
    21.4400       100
    21.4600       102
    21.4800       112
    21.5000       124
    21.5200       120
    21.5400       138
    21.5600       130
    21.5800       178
    21.6000       196
    21.6200       242
    21.6400       250
    21.6600       230
    21.6800       330
    21.7000       380
    21.7200       432
    21.7400       476
    21.7600       628
    21.7800       738
    21.8000       980
    21.8200      1164
    21.8400      1362
    21.8600      1572
    21.8800      1636
    21.9000      1662
    21.9200      1790
    21.9400      1756
    21.9600      1642
    21.9800      1446
    22.0000      1216
    22.0200       980
    22.0400       770
    22.0600       546
    22.0800       432
    22.1000       338
    22.1200       294
    22.1400       246
    22.1600       278
    22.1800       226
    22.2000       268
    22.2200       240
    22.2400       226
    22.2600       214
    22.2800       164
    22.3000       164
    22.3200       134
    22.3400        98
    22.3600        90
    22.3800        84
    22.4000        68
    22.4200        64
    22.4400        54
    22.4600        78
    22.4800        66
    22.5000        56
    22.5200        54
    22.5400        56
    22.5600        58
    22.5800        62
    22.6000        60
    22.6200        58
    22.6400        44
    22.6600        56
    22.6800        56
    22.7000        36
    22.7200        46
    22.7400        60
    22.7600        42
    22.7800        54
    22.8000        72
    22.8200        56
    22.8400        54
    22.8600        72
    22.8800        50
    22.9000        62
    22.9200        54
    22.9400        52
    22.9600        60
    22.9800        58
    23.0000        48
    23.0200        50
    23.0400        42
    23.0600        42
    23.0800        48
    23.1000        52
    23.1200        66
    23.1400        54
    23.1600        46
    23.1800        70
    23.2000        62
    23.2200        48
    23.2400        56
    23.2600        64
    23.2800        54
    23.3000        64
    23.3200        60
    23.3400        60
    23.3600        62
    23.3800        62
    23.4000        78
    23.4200        70
    23.4400        62
    23.4600        74
    23.4800        74
    23.5000        60
    23.5200        76
    23.5400        84
    23.5600        90
    23.5800        76
    23.6000        76
    23.6200        88
    23.6400        90
    23.6600       102
    23.6800       100
    23.7000       120
    23.7200       136
    23.7400       128
    23.7600       144
    23.7800       158
    23.8000       180
    23.8200       168
    23.8400       148
    23.8600       162
    23.8800       154
    23.9000       138
    23.9200       150
    23.9400       152
    23.9600       132
    23.9800       138
    24.0000       134
    24.0200       120
    24.0400        98
    24.0600        94
    24.0800        86
    24.1000        74
    24.1200        60
    24.1400        62
    24.1600        52
    24.1800        42
    24.2000        44
    24.2200        52
    24.2400        54
    24.2600        58
    24.2800        50
    24.3000        52
    24.3200        46
    24.3400        50
    24.3600        54
    24.3800        56
    24.4000        42
    24.4200        58
    24.4400        48
    24.4600        42
    24.4800        58
    24.5000        46
    24.5200        68
    24.5400        44
    24.5600        36
    24.5800        44
    24.6000        48
    24.6200        60
    24.6400        58
    24.6600        52
    24.6800        50
    24.7000        64
    24.7200        46
    24.7400        60
    24.7600        42
    24.7800        44
    24.8000        44
    24.8200        42
    24.8400        50
    24.8600        50
    24.8800        48
    24.9000        48
    24.9200        56
    24.9400        58
    24.9600        50
    24.9800        48
    25.0000        66
    25.0200        56
    25.0400        50
    25.0600        56
    25.0800        42
    25.1000        56
    25.1200        48
    25.1400        48
    25.1600        52
    25.1800        52
    25.2000        54
    25.2200        62
    25.2400        60
    25.2600        52
    25.2800        48
    25.3000        76
    25.3200        76
    25.3400        56
    25.3600        70
    25.3800        72
    25.4000        80
    25.4200        84
    25.4400       102
    25.4600       114
    25.4800       144
    25.5000       116
    25.5200       166
    25.5400       152
    25.5600       162
    25.5800       134
    25.6000       134
    25.6200       146
    25.6400       114
    25.6600       122
    25.6800       100
    25.7000        96
    25.7200        84
    25.7400        72
    25.7600        74
    25.7800        78
    25.8000        70
    25.8200        78
    25.8400        66
    25.8600        72
    25.8800        76
    25.9000        88
    25.9200        84
    25.9400        86
    25.9600        72
    25.9800       104
    26.0000        96
    26.0200        94
    26.0400       150
    26.0600       126
    26.0800       124
    26.1000       186
    26.1200       208
    26.1400       218
    26.1600       240
    26.1800       242
    26.2000       258
    26.2200       234
    26.2400       250
    26.2600       236
    26.2800       232
    26.3000       208
    26.3200       234
    26.3400       212
    26.3600       178
    26.3800       170
    26.4000       150
    26.4200       122
    26.4400       114
    26.4600        80
    26.4800        90
    26.5000        78
    26.5200        76
    26.5400        74
    26.5600        62
    26.5800        58
    26.6000        62
    26.6200        56
    26.6400        48
    26.6600        58
    26.6800        72
    26.7000        52
    26.7200        66
    26.7400        64
    26.7600        52
    26.7800        64
    26.8000        72
    26.8200        60
    26.8400        40
    26.8600        60
    26.8800        54
    26.9000        48
    26.9200        44
    26.9400        56
    26.9600        48
    26.9800        46
    27.0000        50
    27.0200        54
    27.0400        46
    27.0600        42
    27.0800        56
    27.1000        44
    27.1200        52
    27.1400        48
    27.1600        50
    27.1800        66
    27.2000        54
    27.2200        46
    27.2400        56
    27.2600        54
    27.2800        60
    27.3000        56
    27.3200        68
    27.3400        54
    27.3600        74
    27.3800        48
    27.4000        62
    27.4200        56
    27.4400        70
    27.4600        54
    27.4800        52
    27.5000        50
    27.5200        42
    27.5400        54
    27.5600        54
    27.5800        66
    27.6000        56
    27.6200        64
    27.6400        68
    27.6600        70
    27.6800        76
    27.7000        64
    27.7200        58
    27.7400        68
    27.7600       100
    27.7800        90
    27.8000       124
    27.8200       136
    27.8400       144
    27.8600       200
    27.8800       218
    27.9000       260
    27.9200       282
    27.9400       300
    27.9600       292
    27.9800       296
    28.0000       290
    28.0200       270
    28.0400       238
    28.0600       216
    28.0800       204
    28.1000       168
    28.1200       160
    28.1400       152
    28.1600       138
    28.1800       110
    28.2000        92
    28.2200        78
    28.2400        78
    28.2600        74
    28.2800        70
    28.3000        60
    28.3200        54
    28.3400        56
    28.3600        68
    28.3800        60
    28.4000        62
    28.4200        72
    28.4400        64
    28.4600        56
    28.4800        70
    28.5000        88
    28.5200        70
    28.5400        80
    28.5600        80
    28.5800        94
    28.6000        84
    28.6200        96
    28.6400       122
    28.6600       104
    28.6800       116
    28.7000       120
    28.7200       118
    28.7400       122
    28.7600       142
    28.7800       122
    28.8000       100
    28.8200       128
    28.8400       128
    28.8600       102
    28.8800        92
    28.9000        96
    28.9200        96
    28.9400        86
    28.9600        68
    28.9800        86
    29.0000        78
    29.0200        88
    29.0400        78
    29.0600        94
    29.0800        90
    29.1000        90
    29.1200       112
    29.1400       110
    29.1600       132
    29.1800       152
    29.2000       166
    29.2200       190
    29.2400       244
    29.2600       278
    29.2800       334
    29.3000       404
    29.3200       494
    29.3400       560
    29.3600       640
    29.3800       736
    29.4000       880
    29.4200       892
    29.4400       994
    29.4600       996
    29.4800      1060
    29.5000      1062
    29.5200       952
    29.5400       970
    29.5600       832
    29.5800       734
    29.6000       626
    29.6200       532
    29.6400       524
    29.6600       430
    29.6800       378
    29.7000       404
    29.7200       354
    29.7400       382
    29.7600       366
    29.7800       372
    29.8000       370
    29.8200       332
    29.8400       304
    29.8600       322
    29.8800       280
    29.9000       224
    29.9200       180
    29.9400       148
    29.9600       152
    29.9800       112
    30.0000       118
    30.0200       110
    30.0400        96
    30.0600       114
    30.0800       112
    30.1000        98
    30.1200        96
    30.1400       102
    30.1600        76
    30.1800        78
    30.2000        66
    30.2200        72
    30.2400        58
    30.2600        62
    30.2800        48
    30.3000        60
    30.3200        60
    30.3400        44
    30.3600        56
    30.3800        44
    30.4000        50
    30.4200        32
    30.4400        54
    30.4600        56
    30.4800        50
    30.5000        48
    30.5200        62
    30.5400        48
    30.5600        44
    30.5800        58
    30.6000        44
    30.6200        58
    30.6400        58
    30.6600        68
    30.6800        46
    30.7000        44
    30.7200        62
    30.7400        42
    30.7600        42
    30.7800        46
    30.8000        50
    30.8200        48
    30.8400        76
    30.8600        62
    30.8800        60
    30.9000        56
    30.9200        86
    30.9400        64
    30.9600        84
    30.9800        96
    31.0000        96
    31.0200       110
    31.0400       120
    31.0600       132
    31.0800       124
    31.1000       124
    31.1200       100
    31.1400       110
    31.1600       126
    31.1800       110
    31.2000       112
    31.2200       104
    31.2400        82
    31.2600       102
    31.2800        64
    31.3000        52
    31.3200        70
    31.3400        54
    31.3600        44
    31.3800        58
    31.4000        50
    31.4200        68
    31.4400        56
    31.4600        56
    31.4800        58
    31.5000        70
    31.5200        74
    31.5400        58
    31.5600        74
    31.5800        80
    31.6000        70
    31.6200        82
    31.6400        98
    31.6600       102
    31.6800        98
    31.7000        86
    31.7200        90
    31.7400        74
    31.7600        92
    31.7800        74
    31.8000        60
    31.8200        98
    31.8400        84
    31.8600        86
    31.8800        82
    31.9000        76
    31.9200        94
    31.9400        94
    31.9600        84
    31.9800       104
    32.0000       104
    32.0200        94
    32.0400       112
    32.0600       108
    32.0800       130
    32.1000       182
    32.1200       200
    32.1400       256
    32.1600       274
    32.1800       320
    32.2000       358
    32.2200       408
    32.2400       480
    32.2600       462
    32.2800       434
    32.3000       470
    32.3200       416
    32.3400       352
    32.3600       322
    32.3800       268
    32.4000       214
    32.4200       196
    32.4400       128
    32.4600       112
    32.4800        78
    32.5000       102
    32.5200        78
    32.5400        58
    32.5600        58
    32.5800        70
    32.6000        62
    32.6200        62
    32.6400        60
    32.6600        48
    32.6800        74
    32.7000        48
    32.7200        62
    32.7400        44
    32.7600        58
    32.7800        50
    32.8000        58
    32.8200        66
    32.8400        74
    32.8600        68
    32.8800        76
    32.9000        88
    32.9200        88
    32.9400        94
    32.9600       108
    32.9800        96
    33.0000       100
    33.0200        90
    33.0400        94
    33.0600        84
    33.0800        88
    33.1000        76
    33.1200        82
    33.1400        88
    33.1600        78
    33.1800        88
    33.2000        80
    33.2200        72
    33.2400        64
    33.2600        68
    33.2800        74
    33.3000        62
    33.3200        54
    33.3400        56
    33.3600        60
    33.3800        68
    33.4000        62
    33.4200        54
    33.4400        46
    33.4600        58
    33.4800        52
    33.5000        64
    33.5200        42
    33.5400        52
    33.5600        44
    33.5800        58
    33.6000        46
    33.6200        44
    33.6400        54
    33.6600        50
    33.6800        52
    33.7000        54
    33.7200        46
    33.7400        54
    33.7600        56
    33.7800        56
    33.8000        54
    33.8200        48
    33.8400        54
    33.8600        46
    33.8800        46
    33.9000        46
    33.9200        36
    33.9400        48
    33.9600        50
    33.9800        34
    34.0000        48
    34.0200        46
    34.0400        46
    34.0600        58
    34.0800        58
    34.1000        56
    34.1200        54
    34.1400        52
    34.1600        50
    34.1800        60
    34.2000        78
    34.2200        96
    34.2400        88
    34.2600       116
    34.2800       122
    34.3000        88
    34.3200       120
    34.3400        98
    34.3600       106
    34.3800       102
    34.4000       122
    34.4200       120
    34.4400       114
    34.4600        94
    34.4800        88
    34.5000       100
    34.5200       106
    34.5400        86
    34.5600        88
    34.5800        88
    34.6000        84
    34.6200        74
    34.6400        76
    34.6600        74
    34.6800        62
    34.7000        80
    34.7200        84
    34.7400        74
    34.7600        96
    34.7800       120
    34.8000       104
    34.8200       132
    34.8400       120
    34.8600       138
    34.8800       132
    34.9000       152
    34.9200       162
    34.9400       154
    34.9600       162
    34.9800       168
    35.0000       168
    35.0200       190
    35.0400       160
    35.0600       134
    35.0800       136
    35.1000       160
    35.1200       128
    35.1400       148
    35.1600       118
    35.1800       116
    35.2000        84
    35.2200        94
    35.2400        98
    35.2600        84
    35.2800        72
    35.3000        86
    35.3200        80
    35.3400        90
    35.3600        84
    35.3800        84
    35.4000       100
    35.4200        80
    35.4400        82
    35.4600        80
    35.4800        96
    35.5000        90
    35.5200       100
    35.5400       100
    35.5600        88
    35.5800        92
    35.6000        76
    35.6200        78
    35.6400        94
    35.6600        96
    35.6800        86
    35.7000        98
    35.7200       110
    35.7400       106
    35.7600       102
    35.7800       106
    35.8000       116
    35.8200       120
    35.8400       104
    35.8600        84
    35.8800        70
    35.9000        92
    35.9200       104
    35.9400        80
    35.9600        86
    35.9800       108
    36.0000        88
    36.0200        94
    36.0400       110
    36.0600       110
    36.0800       102
    36.1000       136
    36.1200       126
    36.1400       126
    36.1600       130
    36.1800       106
    36.2000       124
    36.2200       100
    36.2400        94
    36.2600        78
    36.2800        96
    36.3000        92
    36.3200        84
    36.3400        74
    36.3600        70
    36.3800        60
    36.4000        64
    36.4200        78
    36.4400        56
    36.4600        68
    36.4800        60
    36.5000        70
    36.5200        98
    36.5400        74
    36.5600        96
    36.5800        68
    36.6000        68
    36.6200        60
    36.6400        58
    36.6600        72
    36.6800        64
    36.7000        78
    36.7200        60
    36.7400        84
    36.7600        60
    36.7800        52
    36.8000        50
    36.8200        62
    36.8400        48
    36.8600        38
    36.8800        56
    36.9000        58
    36.9200        46
    36.9400        44
    36.9600        52
    36.9800        40
    37.0000        52
    37.0200        48
    37.0400        42
    37.0600        40
    37.0800        38
    37.1000        52
    37.1200        38
    37.1400        40
    37.1600        48
    37.1800        48
    37.2000        58
    37.2200        54
    37.2400        44
    37.2600        34
    37.2800        54
    37.3000        48
    37.3200        48
    37.3400        36
    37.3600        50
    37.3800        46
    37.4000        50
    37.4200        54
    37.4400        40
    37.4600        32
    37.4800        64
    37.5000        54
    37.5200        44
    37.5400        54
    37.5600        48
    37.5800        52
    37.6000        40
    37.6200        56
    37.6400        46
    37.6600        58
    37.6800        40
    37.7000        56
    37.7200        40
    37.7400        56
    37.7600        46
    37.7800        38
    37.8000        50
    37.8200        46
    37.8400        56
    37.8600        44
    37.8800        54
    37.9000        52
    37.9200        58
    37.9400        54
    37.9600        64
    37.9800        64
    38.0000        66
    38.0200        60
    38.0400        66
    38.0600        68
    38.0800        96
    38.1000        74
    38.1200        90
    38.1400       100
    38.1600        84
    38.1800       106
    38.2000       130
    38.2200       154
    38.2400       132
    38.2600       142
    38.2800       134
    38.3000       142
    38.3200       106
    38.3400       156
    38.3600       122
    38.3800       128
    38.4000       102
    38.4200       106
    38.4400       100
    38.4600        82
    38.4800        78
    38.5000        70
    38.5200        52
    38.5400        50
    38.5600        56
    38.5800        58
    38.6000        68
    38.6200        66
    38.6400        46
    38.6600        58
    38.6800        42
    38.7000        62
    38.7200        62
    38.7400        62
    38.7600        62
    38.7800        68
    38.8000        60
    38.8200        70
    38.8400        64
    38.8600        74
    38.8800        80
    38.9000        96
    38.9200        72
    38.9400        74
    38.9600        96
    38.9800       102
    39.0000        68
    39.0200        84
    39.0400        70
    39.0600        70
    39.0800        44
    39.1000        52
    39.1200        48
    39.1400        58
    39.1600        54
    39.1800        62
    39.2000        46
    39.2200        48
    39.2400        50
    39.2600        62
    39.2800        46
    39.3000        46
    39.3200        44
    39.3400        44
    39.3600        50
    39.3800        50
    39.4000        42
    39.4200        46
    39.4400        44
    39.4600        42
    39.4800        48
    39.5000        40
    39.5200        46
    39.5400        42
    39.5600        60
    39.5800        66
    39.6000        60
    39.6200        60
    39.6400        68
    39.6600        66
    39.6800        90
    39.7000        56
    39.7200        66
    39.7400        52
    39.7600        62
    39.7800        48
    39.8000        44
    39.8200        48
    39.8400        38
    39.8600        42
    39.8800        46
    39.9000        42
    39.9200        42
    39.9400        46
    39.9600        36
    39.9800        54
    40.0000        40
    40.0200        68
    40.0400        54
    40.0600        52
    40.0800        54
    40.1000        42
    40.1200        56
    40.1400        62
    40.1600        64
    40.1800        78
    40.2000        58
    40.2200        62
    40.2400        68
    40.2600        48
    40.2800        56
    40.3000        56
    40.3200        82
    40.3400        72
    40.3600        76
    40.3800        72
    40.4000        84
    40.4200        88
    40.4400        82
    40.4600        82
    40.4800        92
    40.5000       100
    40.5200       100
    40.5400        74
    40.5600        82
    40.5800        98
    40.6000        54
    40.6200        74
    40.6400        86
    40.6600        70
    40.6800        92
    40.7000        56
    40.7200        82
    40.7400       100
    40.7600        82
    40.7800        76
    40.8000        70
    40.8200        82
    40.8400        86
    40.8600        92
    40.8800        70
    40.9000       104
    40.9200        72
    40.9400        78
    40.9600        68
    40.9800        68
    41.0000        48
    41.0200        68
    41.0400        52
    41.0600        52
    41.0800        62
    41.1000        58
    41.1200        54
    41.1400        56
    41.1600        46
    41.1800        56
    41.2000        52
    41.2200        42
    41.2400        44
    41.2600        50
    41.2800        42
    41.3000        58
    41.3200        44
    41.3400        42
    41.3600        44
    41.3800        34
    41.4000        44
    41.4200        52
    41.4400        42
    41.4600        40
    41.4800        42
    41.5000        44
    41.5200        46
    41.5400        38
    41.5600        42
    41.5800        48
    41.6000        54
    41.6200        58
    41.6400        52
    41.6600        70
    41.6800        74
    41.7000        58
    41.7200        64
    41.7400        64
    41.7600        58
    41.7800        54
    41.8000        68
    41.8200        62
    41.8400        60
    41.8600        62
    41.8800        56
    41.9000        66
    41.9200        50
    41.9400        44
    41.9600        60
    41.9800        58
    42.0000        42
    42.0200        50
    42.0400        42
    42.0600        38
    42.0800        42
    42.1000        50
    42.1200        42
    42.1400        44
    42.1600        40
    42.1800        36
    42.2000        46
    42.2200        40
    42.2400        48
    42.2600        52
    42.2800        36
    42.3000        36
    42.3200        50
    42.3400        48
    42.3600        58
    42.3800        60
    42.4000        58
    42.4200        62
    42.4400        72
    42.4600        78
    42.4800        82
    42.5000       110
    42.5200       104
    42.5400       108
    42.5600        96
    42.5800       108
    42.6000       108
    42.6200       110
    42.6400       112
    42.6600       100
    42.6800        96
    42.7000        64
    42.7200        84
    42.7400        68
    42.7600        68
    42.7800        72
    42.8000        60
    42.8200        64
    42.8400        86
    42.8600        72
    42.8800        58
    42.9000        82
    42.9200        58
    42.9400        90
    42.9600        94
    42.9800        94
    43.0000       112
    43.0200       102
    43.0400       104
    43.0600       124
    43.0800       110
    43.1000       128
    43.1200       106
    43.1400       110
    43.1600        94
    43.1800        98
    43.2000        70
    43.2200        80
    43.2400        38
    43.2600        64
    43.2800        50
    43.3000        54
    43.3200        58
    43.3400        54
    43.3600        50
    43.3800        58
    43.4000        72
    43.4200        54
    43.4400        70
    43.4600        64
    43.4800        68
    43.5000        74
    43.5200        82
    43.5400        88
    43.5600        84
    43.5800        64
    43.6000        72
    43.6200        76
    43.6400        68
    43.6600        86
    43.6800        94
    43.7000        90
    43.7200        88
    43.7400        80
    43.7600       106
    43.7800       128
    43.8000       136
    43.8200       136
    43.8400       150
    43.8600       132
    43.8800       142
    43.9000       112
    43.9200       130
    43.9400       136
    43.9600       116
    43.9800       104
    44.0000       102
    44.0200       100
    44.0400        76
    44.0600       102
    44.0800        96
    44.1000        84
    44.1200        82
    44.1400        64
    44.1600        94
    44.1800        96
    44.2000        98
    44.2200        84
    44.2400        76
    44.2600       104
    44.2800        92
    44.3000        90
    44.3200        92
    44.3400        86
    44.3600        76
    44.3800        82
    44.4000        98
    44.4200        98
    44.4400        88
    44.4600       104
    44.4800       102
    44.5000       114
    44.5200       106
    44.5400        98
    44.5600       110
    44.5800       114
    44.6000       128
    44.6200       154
    44.6400       152
    44.6600       110
    44.6800       140
    44.7000       138
    44.7200       118
    44.7400        98
    44.7600       104
    44.7800        90
    44.8000        94
    44.8200        82
    44.8400        74
    44.8600        84
    44.8800        84
    44.9000        54
    44.9200        72
    44.9400        38
    44.9600        66
    44.9800        62
    45.0000        48
    45.0200        50
    45.0400        54
    45.0600        50
    45.0800        46
    45.1000        48
    45.1200        46
    45.1400        66
    45.1600        54
    45.1800        56
    45.2000        52
    45.2200        60
    45.2400        60
    45.2600        52
    45.2800        40
    45.3000        50
    45.3200        66
    45.3400        44
    45.3600        54
    45.3800        48
    45.4000        64
    45.4200        42
    45.4400        52
    45.4600        46
    45.4800        46
    45.5000        42
    45.5200        42
    45.5400        48
    45.5600        52
    45.5800        42
    45.6000        50
    45.6200        42
    45.6400        40
    45.6600        60
    45.6800        50
    45.7000        44
    45.7200        54
    45.7400        54
    45.7600        54
    45.7800        40
    45.8000        30
    45.8200        64
    45.8400        42
    45.8600        54
    45.8800        38
    45.9000        62
    45.9200        42
    45.9400        56
    45.9600        44
    45.9800        46
    46.0000        48
    46.0200        36
    46.0400        36
    46.0600        42
    46.0800        36
    46.1000        36
    46.1200        40
    46.1400        48
    46.1600        28
    46.1800        46
    46.2000        34
    46.2200        42
    46.2400        40
    46.2600        50
    46.2800        30
    46.3000        50
    46.3200        38
    46.3400        40
    46.3600        52
    46.3800        30
    46.4000        48
    46.4200        44
    46.4400        40
    46.4600        46
    46.4800        26
    46.5000        44
    46.5200        42
    46.5400        60
    46.5600        42
    46.5800        44
    46.6000        62
    46.6200        48
    46.6400        38
    46.6600        36
    46.6800        40
    46.7000        44
    46.7200        50
    46.7400        54
    46.7600        58
    46.7800        54
    46.8000        58
    46.8200        36
    46.8400        34
    46.8600        40
    46.8800        36
    46.9000        40
    46.9200        30
    46.9400        36
    46.9600        38
    46.9800        48
    47.0000        30
    47.0200        26
    47.0400        52
    47.0600        26
    47.0800        38
    47.1000        42
    47.1200        30
    47.1400        46
    47.1600        34
    47.1800        38
    47.2000        36
    47.2200        46
    47.2400        42
    47.2600        50
    47.2800        44
    47.3000        44
    47.3200        52
    47.3400        34
    47.3600        40
    47.3800        50
    47.4000        46
    47.4200        40
    47.4400        48
    47.4600        40
    47.4800        50
    47.5000        38
    47.5200        52
    47.5400        40
    47.5600        36
    47.5800        30
    47.6000        44
    47.6200        40
    47.6400        50
    47.6600        40
    47.6800        44
    47.7000        62
    47.7200        50
    47.7400        48
    47.7600        54
    47.7800        86
    47.8000        64
    47.8200        72
    47.8400        82
    47.8600        88
    47.8800       104
    47.9000       130
    47.9200       118
    47.9400       122
    47.9600       132
    47.9800       116
    48.0000       104
    48.0200       124
    48.0400       104
    48.0600       108
    48.0800        94
    48.1000       114
    48.1200        96
    48.1400        68
    48.1600        82
    48.1800        64
    48.2000        58
    48.2200        72
    48.2400        42
    48.2600        56
    48.2800        64
    48.3000        42
    48.3200        48
    48.3400        62
    48.3600        58
    48.3800        26
    48.4000        40
    48.4200        46
    48.4400        38
    48.4600        36
    48.4800        46
    48.5000        52
    48.5200        54
    48.5400        48
    48.5600        48
    48.5800        54
    48.6000        58
    48.6200        56
    48.6400        68
    48.6600        56
    48.6800        64
    48.7000        62
    48.7200        60
    48.7400        60
    48.7600        48
    48.7800        66
    48.8000        64
    48.8200        58
    48.8400        54
    48.8600        60
    48.8800        60
    48.9000        44
    48.9200        74
    48.9400        44
    48.9600        50
    48.9800        64
    49.0000        74
    49.0200        56
    49.0400        58
    49.0600        52
    49.0800        66
    49.1000        52
    49.1200        52
    49.1400        64
    49.1600        66
    49.1800        80
    49.2000        50
    49.2200        58
    49.2400        56
    49.2600        54
    49.2800        50
    49.3000        56
    49.3200        46
    49.3400        76
    49.3600        58
    49.3800        54
    49.4000        52
    49.4200        62
    49.4400        54
    49.4600        70
    49.4800        54
    49.5000        68
    49.5200        56
    49.5400        58
    49.5600        58
    49.5800        50
    49.6000        54
    49.6200        68
    49.6400        50
    49.6600        62
    49.6800        56
    49.7000        54
    49.7200        68
    49.7400        80
    49.7600        84
    49.7800       100
    49.8000        90
    49.8200       116
    49.8400       144
    49.8600       128
    49.8800       168
    49.9000       172
    49.9200       202
    49.9400       220
    49.9600       232
    49.9800       230
    50.0000       288
    50.0200       316
    50.0400       292
    50.0600       308
    50.0800       342
    50.1000       258
    50.1200       262
    50.1400       204
    50.1600       206
    50.1800       180
    50.2000       172
    50.2200       160
    50.2400       136
    50.2600       122
    50.2800       106
    50.3000        78
    50.3200       102
    50.3400        98
    50.3600        86
    50.3800       104
    50.4000       122
    50.4200       110
    50.4400       106
    50.4600       134
    50.4800       104
    50.5000       122
    50.5200       126
    50.5400       116
    50.5600       108
    50.5800        92
    50.6000       104
    50.6200        98
    50.6400        92
    50.6600        70
    50.6800        66
    50.7000        70
    50.7200        66
    50.7400        68
    50.7600        60
    50.7800        56
    50.8000        56
    50.8200        66
    50.8400        54
    50.8600        70
    50.8800        46
    50.9000        56
    50.9200        46
    50.9400        72
    50.9600        54
    50.9800        46
    51.0000        46
    51.0200        74
    51.0400        72
    51.0600        56
    51.0800        66
    51.1000        82
    51.1200        90
    51.1400        98
    51.1600       118
    51.1800       108
    51.2000       120
    51.2200       128
    51.2400       148
    51.2600       122
    51.2800       104
    51.3000       118
    51.3200        98
    51.3400       100
    51.3600        86
    51.3800        88
    51.4000        82
    51.4200        74
    51.4400        72
    51.4600        78
    51.4800        62
    51.5000        54
    51.5200        58
    51.5400        70
    51.5600        54
    51.5800        46
    51.6000        50
    51.6200        50
    51.6400        50
    51.6600        52
    51.6800        50
    51.7000        48
    51.7200        48
    51.7400        60
    51.7600        56
    51.7800        58
    51.8000        38
    51.8200        32
    51.8400        46
    51.8600        48
    51.8800        48
    51.9000        44
    51.9200        48
    51.9400        36
    51.9600        42
    51.9800        48
    52.0000        38
    52.0200        36
    52.0400        38
    52.0600        32
    52.0800        32
    52.1000        46
    52.1200        46
    52.1400        32
    52.1600        44
    52.1800        60
    52.2000        40
    52.2200        44
    52.2400        50
    52.2600        44
    52.2800        46
    52.3000        38
    52.3200        52
    52.3400        28
    52.3600        48
    52.3800        38
    52.4000        46
    52.4200        36
    52.4400        52
    52.4600        46
    52.4800        50
    52.5000        48
    52.5200        42
    52.5400        40
    52.5600        80
    52.5800        46
    52.6000        56
    52.6200        48
    52.6400        54
    52.6600        66
    52.6800        58
    52.7000        58
    52.7200        52
    52.7400        80
    52.7600        56
    52.7800        68
    52.8000        66
    52.8200        78
    52.8400        78
    52.8600        76
    52.8800        88
    52.9000        86
    52.9200       122
    52.9400        84
    52.9600       106
    52.9800        92
    53.0000        92
    53.0200        94
    53.0400        96
    53.0600       112
    53.0800        84
    53.1000        98
    53.1200        56
    53.1400        86
    53.1600        70
    53.1800        76
    53.2000        66
    53.2200        62
    53.2400        56
    53.2600        50
    53.2800        38
    53.3000        52
    53.3200        36
    53.3400        48
    53.3600        36
    53.3800        44
    53.4000        26
    53.4200        32
    53.4400        32
    53.4600        38
    53.4800        36
    53.5000        50
    53.5200        42
    53.5400        32
    53.5600        40
    53.5800        34
    53.6000        64
    53.6200        48
    53.6400        50
    53.6600        48
    53.6800        50
    53.7000        48
    53.7200        42
    53.7400        56
    53.7600        62
    53.7800        70
    53.8000        60
    53.8200        54
    53.8400        48
    53.8600        42
    53.8800        52
    53.9000        50
    53.9200        46
    53.9400        54
    53.9600        66
    53.9800        42
    54.0000        52
    54.0200        48
    54.0400        50
    54.0600        48
    54.0800        44
    54.1000        56
    54.1200        48
    54.1400        50
    54.1600        48
    54.1800        62
    54.2000        52
    54.2200        40
    54.2400        52
    54.2600        50
    54.2800        60
    54.3000        52
    54.3200        52
    54.3400        68
    54.3600        82
    54.3800        58
    54.4000        70
    54.4200        66
    54.4400        46
    54.4600        52
    54.4800        58
    54.5000        56
    54.5200        62
    54.5400        44
    54.5600        58
    54.5800        36
    54.6000        44
    54.6200        40
    54.6400        34
    54.6600        44
    54.6800        54
    54.7000        50
    54.7200        60
    54.7400        64
    54.7600        68
    54.7800        50
    54.8000        76
    54.8200        66
    54.8400        58
    54.8600        80
    54.8800        68
    54.9000        66
    54.9200        72
    54.9400        62
    54.9600        70
    54.9800        62
    55.0000        66
    55.0200        74
    55.0400        60
    55.0600        66
    55.0800        68
    55.1000        66
    55.1200        64
    55.1400        58
    55.1600        72
    55.1800        78
    55.2000        60
    55.2200       100
    55.2400        70
    55.2600        56
    55.2800        62
    55.3000        64
    55.3200        74
    55.3400        62
    55.3600        56
    55.3800        74
    55.4000        44
    55.4200        42
    55.4400        62
    55.4600        60
    55.4800        50
    55.5000        48
    55.5200        42
    55.5400        38
    55.5600        46
    55.5800        54
    55.6000        42
    55.6200        46
    55.6400        52
    55.6600        40
    55.6800        58
    55.7000        48
    55.7200        38
    55.7400        44
    55.7600        42
    55.7800        64
    55.8000        60
    55.8200        54
    55.8400        68
    55.8600        58
    55.8800        64
    55.9000        52
    55.9200        60
    55.9400        56
    55.9600        66
    55.9800        52
    56.0000        68
    56.0200        66
    56.0400        76
    56.0600        82
    56.0800        62
    56.1000        64
    56.1200        74
    56.1400        70
    56.1600        70
    56.1800        54
    56.2000        66
    56.2200        70
    56.2400        58
    56.2600        68
    56.2800        44
    56.3000        66
    56.3200        64
    56.3400        54
    56.3600        58
    56.3800        38
    56.4000        54
    56.4200        34
    56.4400        48
    56.4600        40
    56.4800        36
    56.5000        44
    56.5200        52
    56.5400        38
    56.5600        40
    56.5800        42
    56.6000        44
    56.6200        38
    56.6400        38
    56.6600        38
    56.6800        54
    56.7000        50
    56.7200        46
    56.7400        40
    56.7600        42
    56.7800        42
    56.8000        50
    56.8200        34
    56.8400        46
    56.8600        34
    56.8800        42
    56.9000        36
    56.9200        56
    56.9400        48
    56.9600        58
    56.9800        40
    57.0000        48
    57.0200        58
    57.0400        36
    57.0600        42
    57.0800        36
    57.1000        52
    57.1200        46
    57.1400        58
    57.1600        46
    57.1800        68
    57.2000        50
    57.2200        64
    57.2400        50
    57.2600        62
    57.2800        56
    57.3000        66
    57.3200        52
    57.3400        66
    57.3600        66
    57.3800        74
    57.4000        58
    57.4200        56
    57.4400        58
    57.4600        48
    57.4800        52
    57.5000        64
    57.5200        50
    57.5400        44
    57.5600        60
    57.5800        66
    57.6000        42
    57.6200        64
    57.6400        76
    57.6600        68
    57.6800        78
    57.7000        84
    57.7200        92
    57.7400        86
    57.7600        82
    57.7800        86
    57.8000       124
    57.8200       134
    57.8400       110
    57.8600       126
    57.8800       134
    57.9000       120
    57.9200       148
    57.9400       130
    57.9600       124
    57.9800       104
    58.0000       130
    58.0200       112
    58.0400       126
    58.0600       126
    58.0800       108
    58.1000       130
    58.1200       106
    58.1400        92
    58.1600       106
    58.1800       126
    58.2000       114
    58.2200       120
    58.2400       118
    58.2600       112
    58.2800        98
    58.3000        96
    58.3200        94
    58.3400        78
    58.3600       110
    58.3800        60
    58.4000        74
    58.4200        86
    58.4400        66
    58.4600        80
    58.4800        56
    58.5000        64
    58.5200        54
    58.5400        66
    58.5600        46
    58.5800        38
    58.6000        58
    58.6200        56
    58.6400        60
    58.6600        46
    58.6800        50
    58.7000        60
    58.7200        64
    58.7400        66
    58.7600        70
    58.7800        54
    58.8000        56
    58.8200        54
    58.8400        66
    58.8600        56
    58.8800        60
    58.9000        56
    58.9200        70
    58.9400        64
    58.9600        72
    58.9800        58
    59.0000        62
    59.0200        66
    59.0400        70
    59.0600        80
    59.0800        70
    59.1000        66
    59.1200        72
    59.1400        62
    59.1600        76
    59.1800        58
    59.2000        74
    59.2200        76
    59.2400        54
    59.2600        68
    59.2800        70
    59.3000        96
    59.3200        90
    59.3400        84
    59.3600        88
    59.3800       124
    59.4000        78
    59.4200       104
    59.4400       122
    59.4600       134
    59.4800       128
    59.5000       128
    59.5200       122
    59.5400       122
    59.5600       108
    59.5800       122
    59.6000       134
    59.6200       112
    59.6400       110
    59.6600       104
    59.6800        90
    59.7000        86
    59.7200        86
    59.7400        82
    59.7600        80
    59.7800        72
    59.8000        66
    59.8200        56
    59.8400        56
    59.8600        64
    59.8800        50
    59.9000        52
    59.9200        48
    59.9400        38
    59.9600        36
    59.9800        44
    60.0000        42
    60.0200        34
    60.0400        42
    60.0600        26
    60.0800        44
    60.1000        50
    60.1200        38
    60.1400        38
    60.1600        30
    60.1800        34
    60.2000        32
    60.2200        32
    60.2400        46
    60.2600        36
    60.2800        36
    60.3000        36
    60.3200        24
    60.3400        44
    60.3600        46
    60.3800        34
    60.4000        38
    60.4200        34
    60.4400        36
    60.4600        38
    60.4800        34
    60.5000        26
    60.5200        40
    60.5400        44
    60.5600        46
    60.5800        34
    60.6000        30
    60.6200        28
    60.6400        24
    60.6600        44
    60.6800        30
    60.7000        44
    60.7200        36
    60.7400        30
    60.7600        28
    60.7800        36
    60.8000        36
    60.8200        28
    60.8400        46
    60.8600        36
    60.8800        36
    60.9000        36
    60.9200        26
    60.9400        48
    60.9600        46
    60.9800        46
    61.0000        40
    61.0200        60
    61.0400        48
    61.0600        40
    61.0800        56
    61.1000        42
    61.1200        76
    61.1400        50
    61.1600        46
    61.1800        44
    61.2000        56
    61.2200        70
    61.2400        58
    61.2600        60
    61.2800        66
    61.3000        52
    61.3200        58
    61.3400        56
    61.3600        68
    61.3800        44
    61.4000        56
    61.4200        54
    61.4400        56
    61.4600        58
    61.4800        54
    61.5000        54
    61.5200        52
    61.5400        30
    61.5600        36
    61.5800        50
    61.6000        36
    61.6200        40
    61.6400        44
    61.6600        34
    61.6800        46
    61.7000        34
    61.7200        38
    61.7400        36
    61.7600        34
    61.7800        34
    61.8000        36
    61.8200        42
    61.8400        48
    61.8600        48
    61.8800        56
    61.9000        50
    61.9200        46
    61.9400        42
    61.9600        38
    61.9800        56
    62.0000        48
    62.0200        52
    62.0400        58
    62.0600        56
    62.0800        56
    62.1000        68
    62.1200        50
    62.1400        66
    62.1600        72
    62.1800        62
    62.2000        62
    62.2200        74
    62.2400        58
    62.2600        52
    62.2800        46
    62.3000        60
    62.3200        46
    62.3400        48
    62.3600        38
    62.3800        54
    62.4000        36
    62.4200        50
    62.4400        58
    62.4600        44
    62.4800        38
    62.5000        52
    62.5200        44
    62.5400        42
    62.5600        38
    62.5800        46
    62.6000        42
    62.6200        48
    62.6400        38
    62.6600        62
    62.6800        56
    62.7000        40
    62.7200        54
    62.7400        42
    62.7600        40
    62.7800        40
    62.8000        40
    62.8200        32
    62.8400        40
    62.8600        36
    62.8800        44
    62.9000        36
    62.9200        46
    62.9400        44
    62.9600        42
    62.9800        44
    63.0000        42
    63.0200        40
    63.0400        48
    63.0600        48
    63.0800        50
    63.1000        38
    63.1200        46
    63.1400        36
    63.1600        52
    63.1800        72
    63.2000        56
    63.2200        52
    63.2400        42
    63.2600        48
    63.2800        56
    63.3000        62
    63.3200        42
    63.3400        56
    63.3600        40
    63.3800        28
    63.4000        48
    63.4200        40
    63.4400        40
    63.4600        48
    63.4800        32
    63.5000        34
    63.5200        40
    63.5400        50
    63.5600        42
    63.5800        44
    63.6000        38
    63.6200        60
    63.6400        40
    63.6600        36
    63.6800        46
    63.7000        38
    63.7200        46
    63.7400        52
    63.7600        42
    63.7800        46
    63.8000        44
    63.8200        32
    63.8400        36
    63.8600        32
    63.8800        28
    63.9000        50
    63.9200        40
    63.9400        44
    63.9600        34
    63.9800        30
    64.0000        50
    64.0200        38
    64.0400        40
    64.0600        46
    64.0800        50
    64.1000        40
    64.1200        44
    64.1400        44
    64.1600        46
    64.1800        46
    64.2000        34
    64.2200        46
    64.2400        52
    64.2600        46
    64.2800        42
    64.3000        44
    64.3200        44
    64.3400        46
    64.3600        58
    64.3800        58
    64.4000        38
    64.4200        56
    64.4400        62
    64.4600        52
    64.4800        52
    64.5000        56
    64.5200        74
    64.5400        60
    64.5600        74
    64.5800        70
    64.6000        68
    64.6200        66
    64.6400        68
    64.6600        78
    64.6800        62
    64.7000        74
    64.7200        72
    64.7400        70
    64.7600        76
    64.7800        62
    64.8000        68
    64.8200        66
    64.8400        58
    64.8600        80
    64.8800        88
    64.9000        74
    64.9200        66
    64.9400        60
    64.9600        68
    64.9800        70
    65.0000        52
