/////////////////////////////////////////////////////////////////////////////////
/// Profile Data Ascii Dump (XRD)                                             ///
/////////////////////////////////////////////////////////////////////////////////

  Group     : Swayze
  Data      : LakeChandler LC-2
  File Name : LakeChandler LC-2.RAW

# Profile Datafile
          comment             = Alunite 
          date & time         = 08-02-28 09:13:14 

# Measurement Condition
    X-ray tube
          target              = Cu 
          voltage             = 40.0 (kV)
          current             = 30.0 (mA)
    Slits
          divergence slit     = 2.00000 (deg) 
          scatter slit        = 2.00000 (deg) 
          receiving slit      = 0.15000 (mm)  
    Scanning
          drive axis          = Theta-2Theta 
          scan range          =    4.000 -   65.000 
          scan mode           = Continuous Scan 
          scan speed          =   2.0000 (deg/min) 
          sampling pitch      =   0.0200 (deg) 
          preset time         =   0.60 (sec) 

# Data      [ Total No. = 3051 ]
  <2Theta>   <   I   >
     4.0000       222
     4.0200       254
     4.0400       214
     4.0600       210
     4.0800       198
     4.1000       200
     4.1200       216
     4.1400       176
     4.1600       196
     4.1800       218
     4.2000       196
     4.2200       232
     4.2400       212
     4.2600       188
     4.2800       186
     4.3000       212
     4.3200       206
     4.3400       206
     4.3600       180
     4.3800       190
     4.4000       196
     4.4200       184
     4.4400       188
     4.4600       178
     4.4800       188
     4.5000       192
     4.5200       162
     4.5400       176
     4.5600       186
     4.5800       186
     4.6000       174
     4.6200       180
     4.6400       180
     4.6600       184
     4.6800       192
     4.7000       188
     4.7200       168
     4.7400       162
     4.7600       152
     4.7800       164
     4.8000       150
     4.8200       198
     4.8400       188
     4.8600       170
     4.8800       182
     4.9000       174
     4.9200       166
     4.9400       186
     4.9600       178
     4.9800       174
     5.0000       188
     5.0200       184
     5.0400       176
     5.0600       166
     5.0800       168
     5.1000       166
     5.1200       172
     5.1400       164
     5.1600       180
     5.1800       146
     5.2000       196
     5.2200       160
     5.2400       160
     5.2600       168
     5.2800       190
     5.3000       172
     5.3200       176
     5.3400       186
     5.3600       180
     5.3800       166
     5.4000       162
     5.4200       184
     5.4400       170
     5.4600       176
     5.4800       144
     5.5000       190
     5.5200       172
     5.5400       184
     5.5600       156
     5.5800       156
     5.6000       154
     5.6200       174
     5.6400       202
     5.6600       184
     5.6800       164
     5.7000       174
     5.7200       178
     5.7400       168
     5.7600       168
     5.7800       142
     5.8000       168
     5.8200       172
     5.8400       164
     5.8600       168
     5.8800       184
     5.9000       174
     5.9200       146
     5.9400       164
     5.9600       156
     5.9800       160
     6.0000       168
     6.0200       162
     6.0400       178
     6.0600       156
     6.0800       166
     6.1000       178
     6.1200       148
     6.1400       138
     6.1600       160
     6.1800       172
     6.2000       160
     6.2200       142
     6.2400       138
     6.2600       176
     6.2800       156
     6.3000       150
     6.3200       152
     6.3400       132
     6.3600       164
     6.3800       162
     6.4000       166
     6.4200       148
     6.4400       146
     6.4600       154
     6.4800       150
     6.5000       178
     6.5200       150
     6.5400       134
     6.5600       132
     6.5800       136
     6.6000       156
     6.6200       142
     6.6400       156
     6.6600       126
     6.6800       150
     6.7000       140
     6.7200       146
     6.7400       120
     6.7600       182
     6.7800       142
     6.8000       148
     6.8200       130
     6.8400       118
     6.8600       140
     6.8800       140
     6.9000       148
     6.9200       150
     6.9400       148
     6.9600       140
     6.9800       136
     7.0000       124
     7.0200       128
     7.0400       124
     7.0600       124
     7.0800       132
     7.1000       122
     7.1200       150
     7.1400       144
     7.1600       122
     7.1800       138
     7.2000       108
     7.2200       120
     7.2400       140
     7.2600       128
     7.2800       100
     7.3000       128
     7.3200       124
     7.3400       126
     7.3600       136
     7.3800       114
     7.4000       138
     7.4200       142
     7.4400       124
     7.4600       124
     7.4800       126
     7.5000       106
     7.5200       124
     7.5400       112
     7.5600       122
     7.5800       104
     7.6000       138
     7.6200       138
     7.6400       140
     7.6600       122
     7.6800       124
     7.7000       126
     7.7200       118
     7.7400       142
     7.7600       118
     7.7800       136
     7.8000       108
     7.8200       150
     7.8400       120
     7.8600       106
     7.8800       106
     7.9000       124
     7.9200       120
     7.9400       120
     7.9600       124
     7.9800       116
     8.0000       130
     8.0200       142
     8.0400       138
     8.0600       124
     8.0800       126
     8.1000       118
     8.1200       114
     8.1400       128
     8.1600       110
     8.1800       140
     8.2000       110
     8.2200       104
     8.2400       134
     8.2600       114
     8.2800       136
     8.3000       122
     8.3200       124
     8.3400       130
     8.3600       126
     8.3800       106
     8.4000       142
     8.4200       120
     8.4400       146
     8.4600       132
     8.4800       122
     8.5000       144
     8.5200       134
     8.5400       118
     8.5600       134
     8.5800       116
     8.6000       136
     8.6200       120
     8.6400       120
     8.6600       130
     8.6800       116
     8.7000       142
     8.7200       114
     8.7400       134
     8.7600       124
     8.7800       144
     8.8000       146
     8.8200       132
     8.8400       118
     8.8600       140
     8.8800       116
     8.9000       124
     8.9200       146
     8.9400       122
     8.9600       106
     8.9800       118
     9.0000       100
     9.0200       114
     9.0400       130
     9.0600       114
     9.0800       110
     9.1000       130
     9.1200       110
     9.1400       120
     9.1600       128
     9.1800       118
     9.2000       112
     9.2200       112
     9.2400       102
     9.2600       122
     9.2800       116
     9.3000       116
     9.3200       108
     9.3400       126
     9.3600       126
     9.3800       138
     9.4000       128
     9.4200       148
     9.4400       136
     9.4600       132
     9.4800       104
     9.5000       116
     9.5200       126
     9.5400       126
     9.5600       110
     9.5800       110
     9.6000       122
     9.6200       124
     9.6400       108
     9.6600       136
     9.6800       108
     9.7000       112
     9.7200       124
     9.7400       126
     9.7600       114
     9.7800       124
     9.8000        98
     9.8200       116
     9.8400       140
     9.8600       106
     9.8800       114
     9.9000       122
     9.9200       116
     9.9400       122
     9.9600       120
     9.9800       124
    10.0000        98
    10.0200       100
    10.0400       118
    10.0600       108
    10.0800       110
    10.1000       112
    10.1200       116
    10.1400        92
    10.1600       122
    10.1800       122
    10.2000       112
    10.2200        98
    10.2400       106
    10.2600       132
    10.2800       108
    10.3000       102
    10.3200        90
    10.3400       104
    10.3600        90
    10.3800       142
    10.4000       120
    10.4200       114
    10.4400       114
    10.4600       112
    10.4800       102
    10.5000       120
    10.5200       110
    10.5400        98
    10.5600        92
    10.5800        98
    10.6000       112
    10.6200       114
    10.6400       104
    10.6600       108
    10.6800       106
    10.7000        88
    10.7200       108
    10.7400        96
    10.7600       100
    10.7800        80
    10.8000        94
    10.8200       106
    10.8400       110
    10.8600        84
    10.8800       124
    10.9000        96
    10.9200       104
    10.9400        98
    10.9600        96
    10.9800        88
    11.0000       102
    11.0200       112
    11.0400       120
    11.0600        90
    11.0800       110
    11.1000       112
    11.1200       100
    11.1400        90
    11.1600       120
    11.1800        82
    11.2000       102
    11.2200       106
    11.2400        96
    11.2600        96
    11.2800       118
    11.3000       102
    11.3200       110
    11.3400       108
    11.3600        96
    11.3800        90
    11.4000        92
    11.4200       104
    11.4400        90
    11.4600       102
    11.4800        88
    11.5000        92
    11.5200       108
    11.5400       106
    11.5600        96
    11.5800        84
    11.6000        86
    11.6200        78
    11.6400        94
    11.6600        92
    11.6800        98
    11.7000        94
    11.7200        88
    11.7400       104
    11.7600        86
    11.7800       100
    11.8000       112
    11.8200       116
    11.8400        94
    11.8600       104
    11.8800        86
    11.9000       108
    11.9200        96
    11.9400       108
    11.9600        98
    11.9800       102
    12.0000       104
    12.0200       116
    12.0400       106
    12.0600       104
    12.0800       124
    12.1000       102
    12.1200       100
    12.1400       106
    12.1600       110
    12.1800       114
    12.2000        96
    12.2200       126
    12.2400       112
    12.2600       126
    12.2800        88
    12.3000       110
    12.3200       104
    12.3400       122
    12.3600       104
    12.3800       106
    12.4000       108
    12.4200       114
    12.4400        78
    12.4600        98
    12.4800        86
    12.5000        92
    12.5200        84
    12.5400        84
    12.5600        86
    12.5800        72
    12.6000        76
    12.6200        88
    12.6400       102
    12.6600        90
    12.6800        84
    12.7000        82
    12.7200        78
    12.7400        88
    12.7600        78
    12.7800        90
    12.8000        80
    12.8200        78
    12.8400        76
    12.8600        74
    12.8800        94
    12.9000        74
    12.9200        76
    12.9400        60
    12.9600        90
    12.9800        76
    13.0000        82
    13.0200        86
    13.0400        84
    13.0600        78
    13.0800        78
    13.1000        80
    13.1200        90
    13.1400        82
    13.1600        80
    13.1800        90
    13.2000        78
    13.2200        78
    13.2400        86
    13.2600        88
    13.2800        88
    13.3000        78
    13.3200        90
    13.3400        80
    13.3600        80
    13.3800        80
    13.4000        70
    13.4200        86
    13.4400        66
    13.4600        96
    13.4800        90
    13.5000        78
    13.5200        94
    13.5400        78
    13.5600        72
    13.5800        64
    13.6000        76
    13.6200        86
    13.6400        58
    13.6600        82
    13.6800        74
    13.7000        70
    13.7200        88
    13.7400        82
    13.7600        80
    13.7800        78
    13.8000        80
    13.8200        76
    13.8400        80
    13.8600        72
    13.8800        64
    13.9000        78
    13.9200        86
    13.9400        72
    13.9600        68
    13.9800        70
    14.0000        72
    14.0200        68
    14.0400        80
    14.0600        72
    14.0800        72
    14.1000        74
    14.1200        66
    14.1400        78
    14.1600        84
    14.1800        94
    14.2000        76
    14.2200        72
    14.2400        76
    14.2600        88
    14.2800        66
    14.3000        70
    14.3200        80
    14.3400       100
    14.3600        70
    14.3800        80
    14.4000        62
    14.4200        72
    14.4400        70
    14.4600        64
    14.4800        76
    14.5000        66
    14.5200        82
    14.5400        60
    14.5600        72
    14.5800        70
    14.6000        84
    14.6200        60
    14.6400        74
    14.6600        78
    14.6800        70
    14.7000        98
    14.7200        76
    14.7400        82
    14.7600        84
    14.7800        84
    14.8000        80
    14.8200        84
    14.8400        76
    14.8600        72
    14.8800        92
    14.9000        86
    14.9200        78
    14.9400        92
    14.9600        74
    14.9800        76
    15.0000        92
    15.0200        86
    15.0400        94
    15.0600        84
    15.0800        92
    15.1000        94
    15.1200        98
    15.1400       102
    15.1600       118
    15.1800       114
    15.2000       128
    15.2200       144
    15.2400       134
    15.2600       134
    15.2800       160
    15.3000       184
    15.3200       222
    15.3400       250
    15.3600       230
    15.3800       276
    15.4000       288
    15.4200       272
    15.4400       262
    15.4600       200
    15.4800       174
    15.5000       122
    15.5200       110
    15.5400        88
    15.5600        94
    15.5800        94
    15.6000        82
    15.6200        72
    15.6400        92
    15.6600        78
    15.6800        76
    15.7000        88
    15.7200        82
    15.7400        70
    15.7600        68
    15.7800        74
    15.8000        68
    15.8200        82
    15.8400        76
    15.8600        72
    15.8800        64
    15.9000        80
    15.9200        54
    15.9400        60
    15.9600        66
    15.9800        72
    16.0000        68
    16.0200        76
    16.0400        62
    16.0600        72
    16.0800        68
    16.1000        60
    16.1200        80
    16.1400        66
    16.1600        60
    16.1800        82
    16.2000        58
    16.2200        72
    16.2400        64
    16.2600        74
    16.2800        68
    16.3000        76
    16.3200        64
    16.3400        68
    16.3600        68
    16.3800        56
    16.4000        62
    16.4200        60
    16.4400        62
    16.4600        74
    16.4800        84
    16.5000        72
    16.5200        62
    16.5400        70
    16.5600        82
    16.5800        74
    16.6000        80
    16.6200        64
    16.6400        72
    16.6600        66
    16.6800        74
    16.7000        74
    16.7200        76
    16.7400        70
    16.7600        58
    16.7800        72
    16.8000        74
    16.8200        62
    16.8400        62
    16.8600        74
    16.8800        58
    16.9000        72
    16.9200        70
    16.9400        62
    16.9600        70
    16.9800        64
    17.0000        64
    17.0200        58
    17.0400        64
    17.0600        78
    17.0800        86
    17.1000        66
    17.1200        80
    17.1400        66
    17.1600        82
    17.1800        72
    17.2000        82
    17.2200        80
    17.2400        88
    17.2600        76
    17.2800        88
    17.3000        74
    17.3200       100
    17.3400        84
    17.3600       104
    17.3800       108
    17.4000       120
    17.4200       120
    17.4400       124
    17.4600       130
    17.4800       158
    17.5000       142
    17.5200       172
    17.5400       178
    17.5600       194
    17.5800       200
    17.6000       232
    17.6200       236
    17.6400       282
    17.6600       298
    17.6800       356
    17.7000       436
    17.7200       514
    17.7400       642
    17.7600       698
    17.7800       754
    17.8000       712
    17.8200       686
    17.8400       550
    17.8600       504
    17.8800       368
    17.9000       260
    17.9200       192
    17.9400       160
    17.9600       104
    17.9800        92
    18.0000       108
    18.0200        86
    18.0400        80
    18.0600       100
    18.0800        84
    18.1000        86
    18.1200        86
    18.1400        68
    18.1600        66
    18.1800        78
    18.2000        72
    18.2200        88
    18.2400        84
    18.2600        72
    18.2800        68
    18.3000        76
    18.3200        88
    18.3400        70
    18.3600        70
    18.3800        70
    18.4000        86
    18.4200        68
    18.4400        76
    18.4600        60
    18.4800        80
    18.5000        64
    18.5200        62
    18.5400        76
    18.5600        56
    18.5800        78
    18.6000        84
    18.6200        74
    18.6400        72
    18.6600        86
    18.6800        72
    18.7000        66
    18.7200        70
    18.7400        82
    18.7600        70
    18.7800        86
    18.8000        80
    18.8200        68
    18.8400        80
    18.8600        68
    18.8800        88
    18.9000        66
    18.9200        68
    18.9400        66
    18.9600        82
    18.9800        70
    19.0000        70
    19.0200        70
    19.0400        90
    19.0600        72
    19.0800        80
    19.1000        62
    19.1200        72
    19.1400        78
    19.1600        90
    19.1800        98
    19.2000        62
    19.2200        62
    19.2400        84
    19.2600        72
    19.2800        86
    19.3000        80
    19.3200        70
    19.3400        74
    19.3600        70
    19.3800        70
    19.4000        72
    19.4200        80
    19.4400        68
    19.4600        76
    19.4800        86
    19.5000        88
    19.5200        92
    19.5400        78
    19.5600        70
    19.5800        88
    19.6000        86
    19.6200        88
    19.6400        90
    19.6600        96
    19.6800       100
    19.7000        96
    19.7200        92
    19.7400       110
    19.7600       112
    19.7800       112
    19.8000       100
    19.8200        98
    19.8400        92
    19.8600        96
    19.8800       100
    19.9000        90
    19.9200        96
    19.9400        98
    19.9600        90
    19.9800        92
    20.0000        82
    20.0200       104
    20.0400        84
    20.0600        98
    20.0800        96
    20.1000        78
    20.1200       118
    20.1400        84
    20.1600        92
    20.1800        86
    20.2000       112
    20.2200        90
    20.2400        88
    20.2600        90
    20.2800        90
    20.3000       120
    20.3200       110
    20.3400        88
    20.3600       102
    20.3800        74
    20.4000       100
    20.4200        94
    20.4400       106
    20.4600       102
    20.4800       106
    20.5000       104
    20.5200       100
    20.5400       100
    20.5600        98
    20.5800        94
    20.6000       110
    20.6200       102
    20.6400       124
    20.6600       106
    20.6800       112
    20.7000       146
    20.7200       126
    20.7400       132
    20.7600       140
    20.7800       146
    20.8000       142
    20.8200       128
    20.8400       134
    20.8600       116
    20.8800       120
    20.9000       116
    20.9200       120
    20.9400        96
    20.9600        86
    20.9800       106
    21.0000       104
    21.0200        92
    21.0400        96
    21.0600       100
    21.0800        84
    21.1000        86
    21.1200        98
    21.1400        98
    21.1600        74
    21.1800        86
    21.2000        82
    21.2200        78
    21.2400       100
    21.2600        94
    21.2800        78
    21.3000        88
    21.3200        98
    21.3400        92
    21.3600       102
    21.3800        74
    21.4000        82
    21.4200        92
    21.4400        90
    21.4600        92
    21.4800       112
    21.5000        80
    21.5200        98
    21.5400       114
    21.5600        98
    21.5800        94
    21.6000       106
    21.6200       104
    21.6400       108
    21.6600        98
    21.6800        74
    21.7000        90
    21.7200        80
    21.7400        88
    21.7600        96
    21.7800        90
    21.8000        94
    21.8200       100
    21.8400        90
    21.8600        88
    21.8800        74
    21.9000        88
    21.9200       104
    21.9400       108
    21.9600        98
    21.9800        96
    22.0000        86
    22.0200        92
    22.0400        98
    22.0600        84
    22.0800        88
    22.1000        76
    22.1200        90
    22.1400        92
    22.1600       128
    22.1800       106
    22.2000        88
    22.2200       102
    22.2400        94
    22.2600        92
    22.2800        80
    22.3000       104
    22.3200       102
    22.3400        78
    22.3600        80
    22.3800        88
    22.4000        84
    22.4200        94
    22.4400        92
    22.4600        78
    22.4800        88
    22.5000        92
    22.5200        92
    22.5400        80
    22.5600        82
    22.5800        78
    22.6000        74
    22.6200        92
    22.6400        74
    22.6600        90
    22.6800        72
    22.7000        82
    22.7200        98
    22.7400        86
    22.7600        72
    22.7800        78
    22.8000        82
    22.8200        66
    22.8400        84
    22.8600        92
    22.8800       110
    22.9000       114
    22.9200        92
    22.9400        84
    22.9600        82
    22.9800        92
    23.0000        88
    23.0200        96
    23.0400        90
    23.0600        94
    23.0800        96
    23.1000        78
    23.1200        80
    23.1400        76
    23.1600        84
    23.1800        88
    23.2000        76
    23.2200        98
    23.2400        86
    23.2600        74
    23.2800        78
    23.3000        98
    23.3200        82
    23.3400        84
    23.3600        98
    23.3800        64
    23.4000        90
    23.4200       110
    23.4400        98
    23.4600       130
    23.4800        90
    23.5000        94
    23.5200        78
    23.5400       102
    23.5600        88
    23.5800        88
    23.6000        98
    23.6200        86
    23.6400        98
    23.6600        74
    23.6800        78
    23.7000        86
    23.7200        92
    23.7400        84
    23.7600       100
    23.7800        90
    23.8000        96
    23.8200       110
    23.8400       102
    23.8600        84
    23.8800        82
    23.9000        84
    23.9200       112
    23.9400        96
    23.9600        74
    23.9800       104
    24.0000        94
    24.0200        78
    24.0400        86
    24.0600        96
    24.0800        84
    24.1000        88
    24.1200        84
    24.1400        90
    24.1600        94
    24.1800        84
    24.2000        84
    24.2200        86
    24.2400       100
    24.2600        80
    24.2800       100
    24.3000       108
    24.3200        84
    24.3400        96
    24.3600        94
    24.3800        92
    24.4000        90
    24.4200       100
    24.4400       114
    24.4600        80
    24.4800        92
    24.5000       100
    24.5200        98
    24.5400        86
    24.5600        92
    24.5800        76
    24.6000        92
    24.6200       112
    24.6400       112
    24.6600       122
    24.6800       112
    24.7000       118
    24.7200       116
    24.7400       122
    24.7600       134
    24.7800        96
    24.8000       114
    24.8200       116
    24.8400       104
    24.8600       118
    24.8800       110
    24.9000       126
    24.9200       106
    24.9400       106
    24.9600       126
    24.9800       134
    25.0000       142
    25.0200       118
    25.0400       140
    25.0600       140
    25.0800       142
    25.1000       178
    25.1200       172
    25.1400       192
    25.1600       192
    25.1800       236
    25.2000       280
    25.2200       336
    25.2400       390
    25.2600       452
    25.2800       558
    25.3000       582
    25.3200       630
    25.3400       678
    25.3600       672
    25.3800       580
    25.4000       470
    25.4200       424
    25.4400       374
    25.4600       292
    25.4800       182
    25.5000       156
    25.5200       164
    25.5400       114
    25.5600       118
    25.5800       102
    25.6000       128
    25.6200       110
    25.6400        98
    25.6600        78
    25.6800        92
    25.7000        82
    25.7200        82
    25.7400        88
    25.7600        78
    25.7800        66
    25.8000        86
    25.8200        80
    25.8400        78
    25.8600        86
    25.8800        70
    25.9000        72
    25.9200        62
    25.9400        80
    25.9600        70
    25.9800        64
    26.0000        82
    26.0200        62
    26.0400        92
    26.0600        78
    26.0800        76
    26.1000        78
    26.1200        70
    26.1400        98
    26.1600        92
    26.1800        96
    26.2000        94
    26.2200        80
    26.2400       126
    26.2600        98
    26.2800       102
    26.3000       116
    26.3200       142
    26.3400       150
    26.3600       188
    26.3800       172
    26.4000       164
    26.4200       208
    26.4400       248
    26.4600       296
    26.4800       306
    26.5000       280
    26.5200       332
    26.5400       312
    26.5600       364
    26.5800       314
    26.6000       256
    26.6200       180
    26.6400       158
    26.6600       154
    26.6800       106
    26.7000        96
    26.7200       102
    26.7400       102
    26.7600        96
    26.7800       104
    26.8000        94
    26.8200        96
    26.8400       100
    26.8600       128
    26.8800        80
    26.9000       100
    26.9200        90
    26.9400       112
    26.9600       122
    26.9800       122
    27.0000       124
    27.0200       110
    27.0400       102
    27.0600       110
    27.0800        98
    27.1000       116
    27.1200       104
    27.1400       106
    27.1600       122
    27.1800        96
    27.2000       114
    27.2200       114
    27.2400       128
    27.2600       138
    27.2800       146
    27.3000       146
    27.3200       158
    27.3400       174
    27.3600       188
    27.3800       186
    27.4000       156
    27.4200       158
    27.4400       128
    27.4600       136
    27.4800       112
    27.5000        84
    27.5200       108
    27.5400        94
    27.5600        94
    27.5800        78
    27.6000        94
    27.6200       108
    27.6400        86
    27.6600        92
    27.6800        90
    27.7000       106
    27.7200        94
    27.7400       104
    27.7600       128
    27.7800       138
    27.8000       122
    27.8200       108
    27.8400       118
    27.8600       116
    27.8800       124
    27.9000       120
    27.9200       136
    27.9400       104
    27.9600        82
    27.9800        88
    28.0000       108
    28.0200        78
    28.0400        88
    28.0600        92
    28.0800        70
    28.1000        70
    28.1200        82
    28.1400        84
    28.1600        78
    28.1800        66
    28.2000        70
    28.2200        70
    28.2400        70
    28.2600        78
    28.2800        56
    28.3000        66
    28.3200        54
    28.3400        60
    28.3600        82
    28.3800        88
    28.4000        56
    28.4200        88
    28.4400        74
    28.4600        84
    28.4800        68
    28.5000        90
    28.5200        82
    28.5400        72
    28.5600        70
    28.5800        86
    28.6000        70
    28.6200        82
    28.6400        66
    28.6600        58
    28.6800        76
    28.7000        80
    28.7200        80
    28.7400        68
    28.7600        68
    28.7800        78
    28.8000        62
    28.8200        66
    28.8400        86
    28.8600        82
    28.8800        66
    28.9000        92
    28.9200        72
    28.9400        90
    28.9600        74
    28.9800        82
    29.0000        84
    29.0200        66
    29.0400        92
    29.0600        84
    29.0800        76
    29.1000        88
    29.1200        86
    29.1400        82
    29.1600        72
    29.1800        94
    29.2000        90
    29.2200        94
    29.2400        88
    29.2600       112
    29.2800       122
    29.3000       108
    29.3200       120
    29.3400       122
    29.3600       134
    29.3800       124
    29.4000       156
    29.4200       172
    29.4400       168
    29.4600       218
    29.4800       254
    29.5000       264
    29.5200       290
    29.5400       338
    29.5600       410
    29.5800       490
    29.6000       618
    29.6200       688
    29.6400       852
    29.6600      1058
    29.6800      1312
    29.7000      1520
    29.7200      1774
    29.7400      2054
    29.7600      2214
    29.7800      2456
    29.8000      2486
    29.8200      2322
    29.8400      2098
    29.8600      1818
    29.8800      1548
    29.9000      1218
    29.9200       948
    29.9400       656
    29.9600       506
    29.9800       370
    30.0000       268
    30.0200       228
    30.0400       212
    30.0600       174
    30.0800       170
    30.1000       142
    30.1200       132
    30.1400       130
    30.1600       122
    30.1800       116
    30.2000       104
    30.2200       110
    30.2400       106
    30.2600        86
    30.2800        86
    30.3000       100
    30.3200       104
    30.3400       108
    30.3600       100
    30.3800        82
    30.4000        80
    30.4200        64
    30.4400        74
    30.4600        68
    30.4800        66
    30.5000        78
    30.5200        86
    30.5400        70
    30.5600        86
    30.5800        78
    30.6000        64
    30.6200        70
    30.6400        86
    30.6600        76
    30.6800        80
    30.7000        82
    30.7200        68
    30.7400        90
    30.7600        74
    30.7800        80
    30.8000        86
    30.8200       100
    30.8400        88
    30.8600       110
    30.8800       114
    30.9000       130
    30.9200       122
    30.9400       156
    30.9600       178
    30.9800       184
    31.0000       240
    31.0200       200
    31.0400       220
    31.0600       208
    31.0800       174
    31.1000       152
    31.1200       132
    31.1400       118
    31.1600       108
    31.1800       132
    31.2000        88
    31.2200       112
    31.2400        76
    31.2600        70
    31.2800        70
    31.3000        76
    31.3200       100
    31.3400        78
    31.3600        78
    31.3800        74
    31.4000       104
    31.4200       108
    31.4400       116
    31.4600       150
    31.4800       162
    31.5000       182
    31.5200       248
    31.5400       254
    31.5600       266
    31.5800       276
    31.6000       284
    31.6200       270
    31.6400       238
    31.6600       198
    31.6800       194
    31.7000       150
    31.7200       128
    31.7400        94
    31.7600        88
    31.7800        96
    31.8000        92
    31.8200        62
    31.8400        80
    31.8600        48
    31.8800        56
    31.9000        62
    31.9200        66
    31.9400        68
    31.9600        66
    31.9800        52
    32.0000        56
    32.0200        50
    32.0400        50
    32.0600        54
    32.0800        44
    32.1000        66
    32.1200        58
    32.1400        56
    32.1600        52
    32.1800        64
    32.2000        64
    32.2200        50
    32.2400        60
    32.2600        50
    32.2800        52
    32.3000        58
    32.3200        56
    32.3400        58
    32.3600        52
    32.3800        62
    32.4000        56
    32.4200        66
    32.4400        58
    32.4600        50
    32.4800        34
    32.5000        50
    32.5200        56
    32.5400        48
    32.5600        38
    32.5800        56
    32.6000        50
    32.6200        54
    32.6400        52
    32.6600        62
    32.6800        54
    32.7000        60
    32.7200        48
    32.7400        50
    32.7600        50
    32.7800        64
    32.8000        40
    32.8200        50
    32.8400        60
    32.8600        56
    32.8800        48
    32.9000        42
    32.9200        54
    32.9400        52
    32.9600        54
    32.9800        44
    33.0000        58
    33.0200        36
    33.0400        42
    33.0600        60
    33.0800        40
    33.1000        44
    33.1200        62
    33.1400        48
    33.1600        36
    33.1800        44
    33.2000        68
    33.2200        44
    33.2400        54
    33.2600        44
    33.2800        48
    33.3000        50
    33.3200        58
    33.3400        64
    33.3600        52
    33.3800        36
    33.4000        62
    33.4200        36
    33.4400        30
    33.4600        48
    33.4800        52
    33.5000        52
    33.5200        38
    33.5400        46
    33.5600        42
    33.5800        40
    33.6000        56
    33.6200        46
    33.6400        50
    33.6600        50
    33.6800        48
    33.7000        60
    33.7200        52
    33.7400        38
    33.7600        54
    33.7800        40
    33.8000        46
    33.8200        46
    33.8400        54
    33.8600        58
    33.8800        26
    33.9000        52
    33.9200        54
    33.9400        48
    33.9600        50
    33.9800        34
    34.0000        56
    34.0200        36
    34.0400        46
    34.0600        54
    34.0800        46
    34.1000        62
    34.1200        54
    34.1400        58
    34.1600        58
    34.1800        54
    34.2000        54
    34.2200        48
    34.2400        64
    34.2600        62
    34.2800        46
    34.3000        52
    34.3200        54
    34.3400        70
    34.3600        54
    34.3800        64
    34.4000        64
    34.4200        58
    34.4400        56
    34.4600        60
    34.4800        56
    34.5000        50
    34.5200        56
    34.5400        54
    34.5600        58
    34.5800        58
    34.6000        64
    34.6200        50
    34.6400        54
    34.6600        68
    34.6800        66
    34.7000        56
    34.7200        66
    34.7400        74
    34.7600        64
    34.7800        72
    34.8000        62
    34.8200        64
    34.8400        72
    34.8600        68
    34.8800        56
    34.9000        78
    34.9200        78
    34.9400        72
    34.9600        68
    34.9800        54
    35.0000        80
    35.0200        70
    35.0400        58
    35.0600        74
    35.0800        60
    35.1000        48
    35.1200        62
    35.1400        62
    35.1600        50
    35.1800        64
    35.2000        72
    35.2200        52
    35.2400        60
    35.2600        62
    35.2800        62
    35.3000        64
    35.3200        74
    35.3400        54
    35.3600        64
    35.3800        62
    35.4000        64
    35.4200        74
    35.4400        58
    35.4600        60
    35.4800        70
    35.5000        44
    35.5200        50
    35.5400        48
    35.5600        68
    35.5800        60
    35.6000        86
    35.6200        50
    35.6400        60
    35.6600        68
    35.6800        58
    35.7000        70
    35.7200        56
    35.7400        50
    35.7600        66
    35.7800        54
    35.8000        66
    35.8200        64
    35.8400        72
    35.8600        68
    35.8800        72
    35.9000        58
    35.9200        76
    35.9400        88
    35.9600        78
    35.9800        70
    36.0000        90
    36.0200        92
    36.0400        86
    36.0600        82
    36.0800       130
    36.1000       148
    36.1200       112
    36.1400       132
    36.1600       118
    36.1800       132
    36.2000       114
    36.2200       100
    36.2400        92
    36.2600        96
    36.2800        82
    36.3000        74
    36.3200        68
    36.3400        64
    36.3600        74
    36.3800        82
    36.4000        62
    36.4200        72
    36.4400        64
    36.4600        72
    36.4800        72
    36.5000        62
    36.5200        80
    36.5400        56
    36.5600        56
    36.5800        66
    36.6000        56
    36.6200        56
    36.6400        62
    36.6600        56
    36.6800        52
    36.7000        44
    36.7200        52
    36.7400        60
    36.7600        48
    36.7800        50
    36.8000        48
    36.8200        52
    36.8400        60
    36.8600        62
    36.8800        52
    36.9000        64
    36.9200        52
    36.9400        66
    36.9600        58
    36.9800        60
    37.0000        56
    37.0200        60
    37.0400        64
    37.0600        62
    37.0800        68
    37.1000        64
    37.1200        54
    37.1400        48
    37.1600        50
    37.1800        68
    37.2000        52
    37.2200        46
    37.2400        50
    37.2600        54
    37.2800        50
    37.3000        60
    37.3200        48
    37.3400        44
    37.3600        52
    37.3800        62
    37.4000        64
    37.4200        54
    37.4400        60
    37.4600        48
    37.4800        54
    37.5000        44
    37.5200        58
    37.5400        62
    37.5600        64
    37.5800        48
    37.6000        58
    37.6200        64
    37.6400        56
    37.6600        64
    37.6800        64
    37.7000        56
    37.7200        52
    37.7400        48
    37.7600        78
    37.7800        64
    37.8000        64
    37.8200        46
    37.8400        66
    37.8600        54
    37.8800        68
    37.9000        50
    37.9200        64
    37.9400        68
    37.9600        68
    37.9800        48
    38.0000        52
    38.0200        60
    38.0400        58
    38.0600        60
    38.0800        64
    38.1000        68
    38.1200        48
    38.1400        62
    38.1600        64
    38.1800        60
    38.2000        56
    38.2200        48
    38.2400        54
    38.2600        58
    38.2800        66
    38.3000        54
    38.3200        74
    38.3400        62
    38.3600        56
    38.3800        62
    38.4000        64
    38.4200        62
    38.4400        72
    38.4600        70
    38.4800        68
    38.5000        50
    38.5200        70
    38.5400        68
    38.5600        56
    38.5800        58
    38.6000        80
    38.6200        58
    38.6400        50
    38.6600        58
    38.6800        70
    38.7000        62
    38.7200        52
    38.7400        58
    38.7600        72
    38.7800        54
    38.8000        60
    38.8200        62
    38.8400        62
    38.8600        54
    38.8800        60
    38.9000        62
    38.9200        62
    38.9400        70
    38.9600        74
    38.9800        64
    39.0000        84
    39.0200        62
    39.0400        90
    39.0600        78
    39.0800        86
    39.1000       128
    39.1200       120
    39.1400       112
    39.1600       150
    39.1800       140
    39.2000       164
    39.2200       198
    39.2400       238
    39.2600       304
    39.2800       356
    39.3000       384
    39.3200       454
    39.3400       556
    39.3600       602
    39.3800       668
    39.4000       648
    39.4200       648
    39.4400       668
    39.4600       576
    39.4800       554
    39.5000       510
    39.5200       430
    39.5400       384
    39.5600       296
    39.5800       252
    39.6000       214
    39.6200       188
    39.6400       160
    39.6600       128
    39.6800       114
    39.7000       102
    39.7200        84
    39.7400        80
    39.7600        78
    39.7800        66
    39.8000        64
    39.8200        52
    39.8400        72
    39.8600        56
    39.8800        76
    39.9000        44
    39.9200        60
    39.9400        58
    39.9600        58
    39.9800        62
    40.0000        54
    40.0200        60
    40.0400        32
    40.0600        62
    40.0800        46
    40.1000        58
    40.1200        60
    40.1400        76
    40.1600        80
    40.1800        82
    40.2000        74
    40.2200        70
    40.2400        66
    40.2600        64
    40.2800        68
    40.3000        62
    40.3200        52
    40.3400        70
    40.3600        64
    40.3800        68
    40.4000        68
    40.4200        78
    40.4400        82
    40.4600        82
    40.4800        82
    40.5000        98
    40.5200       120
    40.5400       130
    40.5600       148
    40.5800       158
    40.6000       186
    40.6200       202
    40.6400       204
    40.6600       210
    40.6800       170
    40.7000       154
    40.7200       164
    40.7400       124
    40.7600       106
    40.7800        82
    40.8000        94
    40.8200        68
    40.8400        84
    40.8600        52
    40.8800        52
    40.9000        56
    40.9200        38
    40.9400        48
    40.9600        50
    40.9800        50
    41.0000        32
    41.0200        54
    41.0400        42
    41.0600        36
    41.0800        38
    41.1000        52
    41.1200        46
    41.1400        50
    41.1600        60
    41.1800        40
    41.2000        54
    41.2200        34
    41.2400        50
    41.2600        40
    41.2800        46
    41.3000        50
    41.3200        50
    41.3400        38
    41.3600        44
    41.3800        40
    41.4000        36
    41.4200        50
    41.4400        56
    41.4600        42
    41.4800        48
    41.5000        54
    41.5200        32
    41.5400        38
    41.5600        48
    41.5800        40
    41.6000        54
    41.6200        46
    41.6400        48
    41.6600        54
    41.6800        38
    41.7000        56
    41.7200        64
    41.7400        46
    41.7600        38
    41.7800        58
    41.8000        50
    41.8200        38
    41.8400        40
    41.8600        38
    41.8800        52
    41.9000        40
    41.9200        44
    41.9400        48
    41.9600        52
    41.9800        58
    42.0000        48
    42.0200        54
    42.0400        38
    42.0600        52
    42.0800        42
    42.1000        28
    42.1200        54
    42.1400        54
    42.1600        44
    42.1800        38
    42.2000        40
    42.2200        60
    42.2400        44
    42.2600        44
    42.2800        42
    42.3000        52
    42.3200        66
    42.3400        60
    42.3600        60
    42.3800        44
    42.4000        54
    42.4200        50
    42.4400        48
    42.4600        40
    42.4800        44
    42.5000        46
    42.5200        44
    42.5400        44
    42.5600        46
    42.5800        50
    42.6000        38
    42.6200        54
    42.6400        50
    42.6600        60
    42.6800        54
    42.7000        56
    42.7200        42
    42.7400        46
    42.7600        62
    42.7800        42
    42.8000        48
    42.8200        32
    42.8400        42
    42.8600        50
    42.8800        42
    42.9000        38
    42.9200        28
    42.9400        32
    42.9600        44
    42.9800        44
    43.0000        40
    43.0200        46
    43.0400        42
    43.0600        38
    43.0800        46
    43.1000        50
    43.1200        38
    43.1400        32
    43.1600        50
    43.1800        44
    43.2000        46
    43.2200        36
    43.2400        38
    43.2600        50
    43.2800        46
    43.3000        32
    43.3200        32
    43.3400        40
    43.3600        36
    43.3800        36
    43.4000        48
    43.4200        38
    43.4400        48
    43.4600        40
    43.4800        48
    43.5000        36
    43.5200        38
    43.5400        32
    43.5600        40
    43.5800        38
    43.6000        44
    43.6200        32
    43.6400        34
    43.6600        38
    43.6800        38
    43.7000        48
    43.7200        40
    43.7400        38
    43.7600        48
    43.7800        42
    43.8000        48
    43.8200        42
    43.8400        36
    43.8600        42
    43.8800        40
    43.9000        34
    43.9200        36
    43.9400        46
    43.9600        40
    43.9800        40
    44.0000        46
    44.0200        32
    44.0400        38
    44.0600        50
    44.0800        32
    44.1000        42
    44.1200        48
    44.1400        44
    44.1600        40
    44.1800        38
    44.2000        34
    44.2200        34
    44.2400        46
    44.2600        44
    44.2800        30
    44.3000        44
    44.3200        42
    44.3400        40
    44.3600        46
    44.3800        54
    44.4000        44
    44.4200        54
    44.4400        46
    44.4600        56
    44.4800        46
    44.5000        44
    44.5200        66
    44.5400        52
    44.5600        62
    44.5800        60
    44.6000        66
    44.6200        64
    44.6400        58
    44.6600        72
    44.6800        66
    44.7000        68
    44.7200        80
    44.7400        64
    44.7600        62
    44.7800        54
    44.8000        56
    44.8200        52
    44.8400        52
    44.8600        52
    44.8800        36
    44.9000        66
    44.9200        56
    44.9400        48
    44.9600        52
    44.9800        42
    45.0000        56
    45.0200        56
    45.0400        36
    45.0600        50
    45.0800        50
    45.1000        58
    45.1200        60
    45.1400        72
    45.1600        68
    45.1800        82
    45.2000        92
    45.2200        98
    45.2400       134
    45.2600       148
    45.2800       148
    45.3000       156
    45.3200       166
    45.3400       154
    45.3600       166
    45.3800       128
    45.4000       130
    45.4200       116
    45.4400        98
    45.4600       130
    45.4800       100
    45.5000        82
    45.5200        74
    45.5400        66
    45.5600        60
    45.5800        56
    45.6000        52
    45.6200        62
    45.6400        52
    45.6600        50
    45.6800        52
    45.7000        56
    45.7200        50
    45.7400        46
    45.7600        64
    45.7800        50
    45.8000        44
    45.8200        50
    45.8400        52
    45.8600        42
    45.8800        50
    45.9000        50
    45.9200        56
    45.9400        38
    45.9600        38
    45.9800        54
    46.0000        48
    46.0200        44
    46.0400        48
    46.0600        46
    46.0800        46
    46.1000        42
    46.1200        48
    46.1400        40
    46.1600        44
    46.1800        32
    46.2000        56
    46.2200        40
    46.2400        42
    46.2600        58
    46.2800        40
    46.3000        44
    46.3200        40
    46.3400        34
    46.3600        46
    46.3800        42
    46.4000        48
    46.4200        50
    46.4400        36
    46.4600        38
    46.4800        48
    46.5000        44
    46.5200        58
    46.5400        52
    46.5600        38
    46.5800        56
    46.6000        44
    46.6200        36
    46.6400        38
    46.6600        58
    46.6800        58
    46.7000        58
    46.7200        46
    46.7400        48
    46.7600        54
    46.7800        56
    46.8000        50
    46.8200        52
    46.8400        44
    46.8600        62
    46.8800        50
    46.9000        48
    46.9200        44
    46.9400        62
    46.9600        60
    46.9800        56
    47.0000        52
    47.0200        52
    47.0400        58
    47.0600        72
    47.0800        74
    47.1000        70
    47.1200        50
    47.1400        90
    47.1600        78
    47.1800        82
    47.2000        90
    47.2200       100
    47.2400        96
    47.2600       110
    47.2800       146
    47.3000       168
    47.3200       168
    47.3400       184
    47.3600       168
    47.3800       224
    47.4000       216
    47.4200       256
    47.4400       240
    47.4600       310
    47.4800       322
    47.5000       384
    47.5200       494
    47.5400       570
    47.5600       682
    47.5800       680
    47.6000       754
    47.6200       720
    47.6400       646
    47.6600       552
    47.6800       516
    47.7000       458
    47.7200       394
    47.7400       380
    47.7600       336
    47.7800       248
    47.8000       206
    47.8200       168
    47.8400       124
    47.8600       118
    47.8800       110
    47.9000        68
    47.9200        76
    47.9400        68
    47.9600        60
    47.9800        64
    48.0000        74
    48.0200        46
    48.0400        50
    48.0600        62
    48.0800        52
    48.1000        54
    48.1200        44
    48.1400        60
    48.1600        44
    48.1800        44
    48.2000        38
    48.2200        50
    48.2400        40
    48.2600        42
    48.2800        36
    48.3000        40
    48.3200        40
    48.3400        38
    48.3600        40
    48.3800        44
    48.4000        40
    48.4200        46
    48.4400        44
    48.4600        54
    48.4800        36
    48.5000        36
    48.5200        48
    48.5400        38
    48.5600        42
    48.5800        30
    48.6000        44
    48.6200        36
    48.6400        44
    48.6600        44
    48.6800        44
    48.7000        44
    48.7200        38
    48.7400        40
    48.7600        36
    48.7800        46
    48.8000        44
    48.8200        40
    48.8400        34
    48.8600        38
    48.8800        36
    48.9000        48
    48.9200        48
    48.9400        50
    48.9600        66
    48.9800        36
    49.0000        48
    49.0200        40
    49.0400        56
    49.0600        44
    49.0800        42
    49.1000        42
    49.1200        42
    49.1400        46
    49.1600        36
    49.1800        44
    49.2000        48
    49.2200        38
    49.2400        42
    49.2600        40
    49.2800        46
    49.3000        48
    49.3200        44
    49.3400        34
    49.3600        30
    49.3800        34
    49.4000        42
    49.4200        34
    49.4400        42
    49.4600        28
    49.4800        44
    49.5000        50
    49.5200        40
    49.5400        54
    49.5600        52
    49.5800        40
    49.6000        46
    49.6200        46
    49.6400        44
    49.6600        46
    49.6800        50
    49.7000        38
    49.7200        30
    49.7400        44
    49.7600        42
    49.7800        32
    49.8000        42
    49.8200        54
    49.8400        54
    49.8600        48
    49.8800        48
    49.9000        34
    49.9200        42
    49.9400        54
    49.9600        60
    49.9800        54
    50.0000        68
    50.0200        80
    50.0400        86
    50.0600        68
    50.0800        50
    50.1000        54
    50.1200        58
    50.1400        52
    50.1600        52
    50.1800        50
    50.2000        58
    50.2200        40
    50.2400        44
    50.2600        32
    50.2800        44
    50.3000        48
    50.3200        36
    50.3400        36
    50.3600        44
    50.3800        56
    50.4000        38
    50.4200        36
    50.4400        40
    50.4600        42
    50.4800        46
    50.5000        42
    50.5200        46
    50.5400        62
    50.5600        42
    50.5800        34
    50.6000        42
    50.6200        48
    50.6400        40
    50.6600        46
    50.6800        40
    50.7000        38
    50.7200        30
    50.7400        46
    50.7600        42
    50.7800        34
    50.8000        36
    50.8200        48
    50.8400        44
    50.8600        42
    50.8800        50
    50.9000        48
    50.9200        42
    50.9400        34
    50.9600        52
    50.9800        30
    51.0000        32
    51.0200        56
    51.0400        42
    51.0600        40
    51.0800        34
    51.1000        42
    51.1200        46
    51.1400        30
    51.1600        42
    51.1800        42
    51.2000        40
    51.2200        48
    51.2400        44
    51.2600        40
    51.2800        32
    51.3000        44
    51.3200        38
    51.3400        40
    51.3600        52
    51.3800        30
    51.4000        42
    51.4200        36
    51.4400        48
    51.4600        38
    51.4800        46
    51.5000        38
    51.5200        48
    51.5400        40
    51.5600        32
    51.5800        48
    51.6000        40
    51.6200        36
    51.6400        44
    51.6600        48
    51.6800        48
    51.7000        40
    51.7200        36
    51.7400        46
    51.7600        48
    51.7800        54
    51.8000        62
    51.8200        64
    51.8400        68
    51.8600        70
    51.8800        86
    51.9000        96
    51.9200        80
    51.9400       108
    51.9600       106
    51.9800       150
    52.0000       152
    52.0200       186
    52.0400       204
    52.0600       282
    52.0800       330
    52.1000       368
    52.1200       442
    52.1400       428
    52.1600       500
    52.1800       484
    52.2000       440
    52.2200       360
    52.2400       342
    52.2600       340
    52.2800       288
    52.3000       302
    52.3200       260
    52.3400       212
    52.3600       184
    52.3800       128
    52.4000       102
    52.4200        84
    52.4400        70
    52.4600        58
    52.4800        58
    52.5000        54
    52.5200        48
    52.5400        54
    52.5600        52
    52.5800        44
    52.6000        58
    52.6200        46
    52.6400        38
    52.6600        34
    52.6800        46
    52.7000        44
    52.7200        50
    52.7400        40
    52.7600        36
    52.7800        48
    52.8000        40
    52.8200        40
    52.8400        28
    52.8600        40
    52.8800        36
    52.9000        38
    52.9200        26
    52.9400        46
    52.9600        32
    52.9800        34
    53.0000        32
    53.0200        36
    53.0400        46
    53.0600        34
    53.0800        40
    53.1000        44
    53.1200        32
    53.1400        38
    53.1600        40
    53.1800        38
    53.2000        40
    53.2200        46
    53.2400        42
    53.2600        46
    53.2800        38
    53.3000        38
    53.3200        38
    53.3400        34
    53.3600        36
    53.3800        46
    53.4000        42
    53.4200        40
    53.4400        32
    53.4600        40
    53.4800        46
    53.5000        42
    53.5200        38
    53.5400        44
    53.5600        50
    53.5800        46
    53.6000        32
    53.6200        42
    53.6400        48
    53.6600        38
    53.6800        50
    53.7000        46
    53.7200        48
    53.7400        48
    53.7600        36
    53.7800        42
    53.8000        38
    53.8200        46
    53.8400        42
    53.8600        52
    53.8800        48
    53.9000        56
    53.9200        52
    53.9400        36
    53.9600        48
    53.9800        48
    54.0000        38
    54.0200        44
    54.0400        36
    54.0600        44
    54.0800        38
    54.1000        52
    54.1200        46
    54.1400        42
    54.1600        30
    54.1800        48
    54.2000        46
    54.2200        36
    54.2400        48
    54.2600        46
    54.2800        36
    54.3000        48
    54.3200        58
    54.3400        52
    54.3600        40
    54.3800        60
    54.4000        36
    54.4200        40
    54.4400        54
    54.4600        66
    54.4800        60
    54.5000        58
    54.5200        66
    54.5400        62
    54.5600        62
    54.5800        52
    54.6000        72
    54.6200        62
    54.6400        64
    54.6600        62
    54.6800        72
    54.7000        54
    54.7200        54
    54.7400        54
    54.7600        64
    54.7800        56
    54.8000        54
    54.8200        52
    54.8400        58
    54.8600        52
    54.8800        48
    54.9000        48
    54.9200        50
    54.9400        40
    54.9600        40
    54.9800        38
    55.0000        40
    55.0200        44
    55.0400        46
    55.0600        56
    55.0800        60
    55.1000        38
    55.1200        42
    55.1400        34
    55.1600        50
    55.1800        46
    55.2000        46
    55.2200        62
    55.2400        60
    55.2600        70
    55.2800        56
    55.3000        74
    55.3200        58
    55.3400        46
    55.3600        54
    55.3800        68
    55.4000        60
    55.4200        62
    55.4400        72
    55.4600        90
    55.4800        80
    55.5000        88
    55.5200        90
    55.5400        80
    55.5600        92
    55.5800        86
    55.6000       112
    55.6200        84
    55.6400        84
    55.6600        94
    55.6800        76
    55.7000        86
    55.7200        70
    55.7400        62
    55.7600        56
    55.7800        62
    55.8000        46
    55.8200        58
    55.8400        38
    55.8600        62
    55.8800        54
    55.9000        42
    55.9200        48
    55.9400        48
    55.9600        44
    55.9800        42
    56.0000        46
    56.0200        30
    56.0400        40
    56.0600        46
    56.0800        50
    56.1000        40
    56.1200        44
    56.1400        34
    56.1600        44
    56.1800        34
    56.2000        42
    56.2200        38
    56.2400        60
    56.2600        50
    56.2800        60
    56.3000        62
    56.3200        68
    56.3400        46
    56.3600        70
    56.3800        62
    56.4000        72
    56.4200        68
    56.4400        68
    56.4600        52
    56.4800        60
    56.5000        50
    56.5200        54
    56.5400        50
    56.5600        40
    56.5800        48
    56.6000        60
    56.6200        44
    56.6400        56
    56.6600        36
    56.6800        42
    56.7000        32
    56.7200        40
    56.7400        38
    56.7600        26
    56.7800        40
    56.8000        40
    56.8200        36
    56.8400        42
    56.8600        44
    56.8800        44
    56.9000        42
    56.9200        40
    56.9400        46
    56.9600        34
    56.9800        40
    57.0000        44
    57.0200        38
    57.0400        26
    57.0600        32
    57.0800        32
    57.1000        32
    57.1200        42
    57.1400        36
    57.1600        32
    57.1800        40
    57.2000        38
    57.2200        32
    57.2400        36
    57.2600        24
    57.2800        52
    57.3000        42
    57.3200        46
    57.3400        34
    57.3600        30
    57.3800        42
    57.4000        42
    57.4200        36
    57.4400        46
    57.4600        28
    57.4800        42
    57.5000        36
    57.5200        36
    57.5400        36
    57.5600        42
    57.5800        34
    57.6000        40
    57.6200        38
    57.6400        42
    57.6600        46
    57.6800        54
    57.7000        28
    57.7200        48
    57.7400        28
    57.7600        36
    57.7800        34
    57.8000        38
    57.8200        50
    57.8400        40
    57.8600        40
    57.8800        32
    57.9000        30
    57.9200        42
    57.9400        40
    57.9600        34
    57.9800        34
    58.0000        50
    58.0200        36
    58.0400        40
    58.0600        36
    58.0800        34
    58.1000        30
    58.1200        36
    58.1400        38
    58.1600        30
    58.1800        48
    58.2000        50
    58.2200        60
    58.2400        42
    58.2600        44
    58.2800        42
    58.3000        56
    58.3200        34
    58.3400        38
    58.3600        28
    58.3800        46
    58.4000        32
    58.4200        32
    58.4400        48
    58.4600        34
    58.4800        42
    58.5000        40
    58.5200        42
    58.5400        56
    58.5600        58
    58.5800        50
    58.6000        44
    58.6200        64
    58.6400        80
    58.6600        74
    58.6800        66
    58.7000        80
    58.7200        72
    58.7400        84
    58.7600        90
    58.7800        84
    58.8000        82
    58.8200        72
    58.8400        78
    58.8600        70
    58.8800        84
    58.9000        62
    58.9200        66
    58.9400        76
    58.9600        70
    58.9800        60
    59.0000        60
    59.0200        42
    59.0400        42
    59.0600        42
    59.0800        48
    59.1000        42
    59.1200        42
    59.1400        34
    59.1600        36
    59.1800        42
    59.2000        36
    59.2200        28
    59.2400        40
    59.2600        36
    59.2800        30
    59.3000        40
    59.3200        40
    59.3400        42
    59.3600        44
    59.3800        44
    59.4000        30
    59.4200        36
    59.4400        40
    59.4600        36
    59.4800        32
    59.5000        40
    59.5200        46
    59.5400        34
    59.5600        24
    59.5800        36
    59.6000        34
    59.6200        44
    59.6400        40
    59.6600        40
    59.6800        54
    59.7000        42
    59.7200        38
    59.7400        46
    59.7600        54
    59.7800        48
    59.8000        44
    59.8200        56
    59.8400        60
    59.8600        64
    59.8800        64
    59.9000        52
    59.9200        48
    59.9400        54
    59.9600        54
    59.9800        42
    60.0000        40
    60.0200        60
    60.0400        36
    60.0600        52
    60.0800        56
    60.1000        46
    60.1200        42
    60.1400        42
    60.1600        46
    60.1800        42
    60.2000        36
    60.2200        48
    60.2400        40
    60.2600        44
    60.2800        32
    60.3000        38
    60.3200        50
    60.3400        44
    60.3600        52
    60.3800        46
    60.4000        38
    60.4200        36
    60.4400        52
    60.4600        42
    60.4800        44
    60.5000        50
    60.5200        34
    60.5400        38
    60.5600        42
    60.5800        52
    60.6000        40
    60.6200        52
    60.6400        38
    60.6600        56
    60.6800        44
    60.7000        46
    60.7200        36
    60.7400        30
    60.7600        38
    60.7800        56
    60.8000        44
    60.8200        42
    60.8400        40
    60.8600        60
    60.8800        40
    60.9000        46
    60.9200        40
    60.9400        44
    60.9600        50
    60.9800        60
    61.0000        42
    61.0200        62
    61.0400        54
    61.0600        62
    61.0800        54
    61.1000        78
    61.1200        82
    61.1400        90
    61.1600        88
    61.1800        96
    61.2000       102
    61.2200        98
    61.2400       102
    61.2600       140
    61.2800       122
    61.3000       108
    61.3200       100
    61.3400       100
    61.3600        88
    61.3800        94
    61.4000       106
    61.4200        84
    61.4400        94
    61.4600       106
    61.4800        92
    61.5000       106
    61.5200        76
    61.5400       108
    61.5600        86
    61.5800        80
    61.6000       116
    61.6200       118
    61.6400       136
    61.6600       160
    61.6800       148
    61.7000       164
    61.7200       238
    61.7400       238
    61.7600       282
    61.7800       284
    61.8000       310
    61.8200       298
    61.8400       306
    61.8600       318
    61.8800       330
    61.9000       316
    61.9200       380
    61.9400       374
    61.9600       390
    61.9800       362
    62.0000       350
    62.0200       328
    62.0400       294
    62.0600       294
    62.0800       270
    62.1000       270
    62.1200       208
    62.1400       198
    62.1600       180
    62.1800       184
    62.2000       146
    62.2200       130
    62.2400       108
    62.2600       124
    62.2800        92
    62.3000        90
    62.3200        84
    62.3400        62
    62.3600        70
    62.3800        70
    62.4000        60
    62.4200        60
    62.4400        62
    62.4600        66
    62.4800        52
    62.5000        50
    62.5200        42
    62.5400        52
    62.5600        46
    62.5800        52
    62.6000        38
    62.6200        50
    62.6400        46
    62.6600        42
    62.6800        38
    62.7000        42
    62.7200        50
    62.7400        48
    62.7600        42
    62.7800        42
    62.8000        50
    62.8200        34
    62.8400        36
    62.8600        52
    62.8800        36
    62.9000        50
    62.9200        42
    62.9400        30
    62.9600        44
    62.9800        52
    63.0000        36
    63.0200        30
    63.0400        48
    63.0600        46
    63.0800        32
    63.1000        38
    63.1200        30
    63.1400        38
    63.1600        36
    63.1800        36
    63.2000        30
    63.2200        46
    63.2400        36
    63.2600        44
    63.2800        30
    63.3000        44
    63.3200        46
    63.3400        26
    63.3600        44
    63.3800        28
    63.4000        44
    63.4200        40
    63.4400        54
    63.4600        36
    63.4800        46
    63.5000        70
    63.5200        34
    63.5400        38
    63.5600        32
    63.5800        46
    63.6000        42
    63.6200        46
    63.6400        42
    63.6600        44
    63.6800        34
    63.7000        42
    63.7200        32
    63.7400        44
    63.7600        30
    63.7800        46
    63.8000        40
    63.8200        42
    63.8400        42
    63.8600        36
    63.8800        52
    63.9000        52
    63.9200        48
    63.9400        60
    63.9600        44
    63.9800        38
    64.0000        34
    64.0200        38
    64.0400        40
    64.0600        26
    64.0800        56
    64.1000        34
    64.1200        40
    64.1400        54
    64.1600        36
    64.1800        40
    64.2000        38
    64.2200        30
    64.2400        48
    64.2600        36
    64.2800        52
    64.3000        40
    64.3200        38
    64.3400        26
    64.3600        24
    64.3800        38
    64.4000        42
    64.4200        42
    64.4400        36
    64.4600        34
    64.4800        54
    64.5000        42
    64.5200        26
    64.5400        26
    64.5600        40
    64.5800        36
    64.6000        32
    64.6200        34
    64.6400        42
    64.6600        20
    64.6800        28
    64.7000        40
    64.7200        46
    64.7400        34
    64.7600        38
    64.7800        30
    64.8000        36
    64.8200        44
    64.8400        40
    64.8600        38
    64.8800        42
    64.9000        40
    64.9200        44
    64.9400        56
    64.9600        50
    64.9800        52
    65.0000        48
