/////////////////////////////////////////////////////////////////////////////////
/// Profile Data Ascii Dump (XRD)                                             ///
/////////////////////////////////////////////////////////////////////////////////

  Group     : Swayze
  Data      : LakeGilmore LG-4
  File Name : LakeGilmore LG-4.RAW

# Profile Datafile
          comment             = Alunite 
          date & time         = 08-02-28 08:42:16 

# Measurement Condition
    X-ray tube
          target              = Cu 
          voltage             = 40.0 (kV)
          current             = 30.0 (mA)
    Slits
          divergence slit     = 2.00000 (deg) 
          scatter slit        = 2.00000 (deg) 
          receiving slit      = 0.15000 (mm)  
    Scanning
          drive axis          = Theta-2Theta 
          scan range          =    4.000 -   65.000 
          scan mode           = Continuous Scan 
          scan speed          =   2.0000 (deg/min) 
          sampling pitch      =   0.0200 (deg) 
          preset time         =   0.60 (sec) 

# Data      [ Total No. = 3051 ]
  <2Theta>   <   I   >
     4.0000       216
     4.0200       186
     4.0400       188
     4.0600       194
     4.0800       234
     4.1000       212
     4.1200       194
     4.1400       184
     4.1600       194
     4.1800       192
     4.2000       176
     4.2200       180
     4.2400       202
     4.2600       176
     4.2800       178
     4.3000       192
     4.3200       202
     4.3400       192
     4.3600       196
     4.3800       160
     4.4000       174
     4.4200       184
     4.4400       176
     4.4600       184
     4.4800       198
     4.5000       188
     4.5200       168
     4.5400       186
     4.5600       178
     4.5800       170
     4.6000       164
     4.6200       166
     4.6400       192
     4.6600       188
     4.6800       152
     4.7000       202
     4.7200       190
     4.7400       174
     4.7600       182
     4.7800       186
     4.8000       170
     4.8200       172
     4.8400       166
     4.8600       162
     4.8800       174
     4.9000       170
     4.9200       168
     4.9400       174
     4.9600       158
     4.9800       164
     5.0000       172
     5.0200       198
     5.0400       178
     5.0600       168
     5.0800       170
     5.1000       198
     5.1200       174
     5.1400       190
     5.1600       158
     5.1800       154
     5.2000       186
     5.2200       158
     5.2400       174
     5.2600       160
     5.2800       148
     5.3000       174
     5.3200       144
     5.3400       148
     5.3600       146
     5.3800       158
     5.4000       168
     5.4200       194
     5.4400       170
     5.4600       162
     5.4800       158
     5.5000       150
     5.5200       152
     5.5400       174
     5.5600       182
     5.5800       172
     5.6000       158
     5.6200       150
     5.6400       166
     5.6600       166
     5.6800       150
     5.7000       176
     5.7200       162
     5.7400       164
     5.7600       162
     5.7800       176
     5.8000       144
     5.8200       164
     5.8400       148
     5.8600       162
     5.8800       178
     5.9000       208
     5.9200       208
     5.9400       164
     5.9600       150
     5.9800       184
     6.0000       170
     6.0200       180
     6.0400       166
     6.0600       170
     6.0800       164
     6.1000       154
     6.1200       164
     6.1400       160
     6.1600       142
     6.1800       136
     6.2000       144
     6.2200       152
     6.2400       152
     6.2600       164
     6.2800       148
     6.3000       158
     6.3200       132
     6.3400       164
     6.3600       152
     6.3800       138
     6.4000       148
     6.4200       152
     6.4400       146
     6.4600       154
     6.4800       152
     6.5000       148
     6.5200       130
     6.5400       138
     6.5600       124
     6.5800       178
     6.6000       154
     6.6200       154
     6.6400       140
     6.6600       136
     6.6800       146
     6.7000       138
     6.7200       140
     6.7400       134
     6.7600       134
     6.7800       134
     6.8000       152
     6.8200       138
     6.8400       132
     6.8600       134
     6.8800       120
     6.9000       152
     6.9200       108
     6.9400       118
     6.9600       132
     6.9800       134
     7.0000       126
     7.0200       140
     7.0400       124
     7.0600       146
     7.0800       138
     7.1000       128
     7.1200       122
     7.1400       126
     7.1600       128
     7.1800       148
     7.2000       116
     7.2200       122
     7.2400       120
     7.2600       134
     7.2800       142
     7.3000       132
     7.3200       126
     7.3400       116
     7.3600       130
     7.3800       124
     7.4000       118
     7.4200       114
     7.4400       148
     7.4600       142
     7.4800       124
     7.5000       102
     7.5200       126
     7.5400       142
     7.5600       136
     7.5800        94
     7.6000       100
     7.6200       126
     7.6400       104
     7.6600       114
     7.6800       122
     7.7000       112
     7.7200       142
     7.7400       118
     7.7600        92
     7.7800       124
     7.8000       114
     7.8200       110
     7.8400       148
     7.8600       102
     7.8800       112
     7.9000       124
     7.9200       122
     7.9400       134
     7.9600       130
     7.9800       116
     8.0000        86
     8.0200       136
     8.0400       116
     8.0600       112
     8.0800       118
     8.1000       108
     8.1200       110
     8.1400        96
     8.1600        98
     8.1800       128
     8.2000       120
     8.2200       108
     8.2400       132
     8.2600       138
     8.2800       132
     8.3000       112
     8.3200       136
     8.3400       128
     8.3600        96
     8.3800       118
     8.4000       128
     8.4200        94
     8.4400       114
     8.4600       140
     8.4800       144
     8.5000       114
     8.5200       154
     8.5400       116
     8.5600       122
     8.5800       130
     8.6000       154
     8.6200       130
     8.6400       108
     8.6600       128
     8.6800       130
     8.7000       130
     8.7200       158
     8.7400       152
     8.7600       130
     8.7800       126
     8.8000       154
     8.8200       124
     8.8400       126
     8.8600       140
     8.8800       122
     8.9000       104
     8.9200       128
     8.9400       122
     8.9600       126
     8.9800       122
     9.0000        94
     9.0200       128
     9.0400       104
     9.0600       100
     9.0800       108
     9.1000       126
     9.1200       112
     9.1400       128
     9.1600       112
     9.1800       130
     9.2000       128
     9.2200       116
     9.2400       118
     9.2600       118
     9.2800       110
     9.3000       112
     9.3200       118
     9.3400       116
     9.3600       106
     9.3800       106
     9.4000       100
     9.4200       118
     9.4400       120
     9.4600       108
     9.4800       134
     9.5000       104
     9.5200       104
     9.5400       106
     9.5600       136
     9.5800        94
     9.6000       120
     9.6200       132
     9.6400       108
     9.6600       102
     9.6800       118
     9.7000       110
     9.7200        98
     9.7400       124
     9.7600       114
     9.7800       110
     9.8000       108
     9.8200       102
     9.8400       102
     9.8600       104
     9.8800       110
     9.9000       122
     9.9200       132
     9.9400        88
     9.9600       118
     9.9800       120
    10.0000       112
    10.0200       116
    10.0400       104
    10.0600       102
    10.0800       112
    10.1000        94
    10.1200       116
    10.1400       122
    10.1600       130
    10.1800       138
    10.2000       120
    10.2200       114
    10.2400        96
    10.2600       108
    10.2800       114
    10.3000       124
    10.3200       118
    10.3400       108
    10.3600       114
    10.3800       132
    10.4000       100
    10.4200        80
    10.4400       110
    10.4600        96
    10.4800       114
    10.5000        98
    10.5200        92
    10.5400        90
    10.5600       120
    10.5800        98
    10.6000       100
    10.6200       114
    10.6400       104
    10.6600        90
    10.6800       120
    10.7000        90
    10.7200       112
    10.7400       120
    10.7600        98
    10.7800       108
    10.8000        92
    10.8200        96
    10.8400       114
    10.8600        92
    10.8800       102
    10.9000        96
    10.9200        98
    10.9400        98
    10.9600       116
    10.9800        98
    11.0000        94
    11.0200        96
    11.0400       108
    11.0600        94
    11.0800        92
    11.1000       108
    11.1200       112
    11.1400       108
    11.1600       120
    11.1800        88
    11.2000        98
    11.2200       102
    11.2400       112
    11.2600       106
    11.2800       106
    11.3000       102
    11.3200       110
    11.3400       106
    11.3600        84
    11.3800       104
    11.4000       116
    11.4200       124
    11.4400       128
    11.4600       136
    11.4800       124
    11.5000       118
    11.5200       192
    11.5400       148
    11.5600       162
    11.5800       164
    11.6000       146
    11.6200       120
    11.6400       104
    11.6600        94
    11.6800        94
    11.7000        94
    11.7200       106
    11.7400       106
    11.7600        84
    11.7800        98
    11.8000        82
    11.8200       110
    11.8400        98
    11.8600       130
    11.8800        76
    11.9000       108
    11.9200        82
    11.9400       102
    11.9600       104
    11.9800        98
    12.0000        84
    12.0200       124
    12.0400        96
    12.0600       106
    12.0800       100
    12.1000       112
    12.1200        96
    12.1400       114
    12.1600       120
    12.1800       122
    12.2000       116
    12.2200       130
    12.2400       120
    12.2600       130
    12.2800       122
    12.3000       128
    12.3200       132
    12.3400       128
    12.3600       120
    12.3800       122
    12.4000       128
    12.4200        98
    12.4400        94
    12.4600       108
    12.4800        84
    12.5000        92
    12.5200        88
    12.5400        88
    12.5600        74
    12.5800        82
    12.6000        90
    12.6200        98
    12.6400        80
    12.6600        82
    12.6800        90
    12.7000        86
    12.7200        94
    12.7400        82
    12.7600        88
    12.7800        84
    12.8000        76
    12.8200        74
    12.8400        80
    12.8600        80
    12.8800        86
    12.9000        80
    12.9200        78
    12.9400       110
    12.9600        76
    12.9800        88
    13.0000        72
    13.0200        80
    13.0400        90
    13.0600        74
    13.0800        94
    13.1000        90
    13.1200        84
    13.1400        76
    13.1600       102
    13.1800        92
    13.2000        84
    13.2200        66
    13.2400        94
    13.2600        74
    13.2800        76
    13.3000        78
    13.3200        82
    13.3400        70
    13.3600        86
    13.3800        72
    13.4000        94
    13.4200        88
    13.4400        92
    13.4600        86
    13.4800        64
    13.5000        84
    13.5200        82
    13.5400        96
    13.5600        86
    13.5800        78
    13.6000        78
    13.6200       106
    13.6400        82
    13.6600        82
    13.6800        74
    13.7000        80
    13.7200        68
    13.7400        84
    13.7600        82
    13.7800        88
    13.8000       100
    13.8200        76
    13.8400        80
    13.8600        78
    13.8800        66
    13.9000        96
    13.9200        78
    13.9400        78
    13.9600        76
    13.9800        84
    14.0000        86
    14.0200        82
    14.0400        78
    14.0600        74
    14.0800        74
    14.1000        90
    14.1200       104
    14.1400        70
    14.1600        80
    14.1800        76
    14.2000        84
    14.2200        84
    14.2400        72
    14.2600        84
    14.2800        80
    14.3000        76
    14.3200        74
    14.3400        84
    14.3600        68
    14.3800        70
    14.4000        76
    14.4200        66
    14.4400        64
    14.4600        72
    14.4800        82
    14.5000        66
    14.5200        86
    14.5400        86
    14.5600        64
    14.5800        74
    14.6000        76
    14.6200        90
    14.6400        84
    14.6600        80
    14.6800        66
    14.7000        80
    14.7200        66
    14.7400        74
    14.7600        82
    14.7800        74
    14.8000        98
    14.8200        84
    14.8400        72
    14.8600        98
    14.8800        70
    14.9000        82
    14.9200        80
    14.9400        66
    14.9600        84
    14.9800        70
    15.0000        58
    15.0200        68
    15.0400        76
    15.0600        78
    15.0800        62
    15.1000        88
    15.1200        84
    15.1400        82
    15.1600        78
    15.1800        92
    15.2000        86
    15.2200        74
    15.2400        88
    15.2600        84
    15.2800       100
    15.3000        90
    15.3200        84
    15.3400        94
    15.3600        92
    15.3800       108
    15.4000       108
    15.4200        88
    15.4400        98
    15.4600        88
    15.4800        84
    15.5000        94
    15.5200        68
    15.5400        86
    15.5600        70
    15.5800        88
    15.6000        78
    15.6200        84
    15.6400        84
    15.6600        92
    15.6800        66
    15.7000        74
    15.7200        70
    15.7400        72
    15.7600        78
    15.7800        90
    15.8000        86
    15.8200        82
    15.8400        78
    15.8600        64
    15.8800       106
    15.9000        78
    15.9200        72
    15.9400        74
    15.9600        70
    15.9800        84
    16.0000        86
    16.0200        88
    16.0400        66
    16.0600        76
    16.0800        74
    16.1000        54
    16.1200        82
    16.1400        68
    16.1600        70
    16.1800        68
    16.2000        78
    16.2200        72
    16.2400        74
    16.2600        74
    16.2800        80
    16.3000        60
    16.3200        90
    16.3400        86
    16.3600        86
    16.3800        80
    16.4000        80
    16.4200        80
    16.4400        90
    16.4600        68
    16.4800        78
    16.5000        74
    16.5200        88
    16.5400        70
    16.5600        74
    16.5800        74
    16.6000        76
    16.6200        74
    16.6400        70
    16.6600        76
    16.6800        92
    16.7000        70
    16.7200        84
    16.7400        80
    16.7600        88
    16.7800        84
    16.8000        58
    16.8200       100
    16.8400        88
    16.8600        88
    16.8800        74
    16.9000        84
    16.9200        60
    16.9400        74
    16.9600        74
    16.9800        74
    17.0000        76
    17.0200        88
    17.0400        94
    17.0600        72
    17.0800        86
    17.1000        80
    17.1200        92
    17.1400        62
    17.1600        88
    17.1800        80
    17.2000        66
    17.2200        98
    17.2400        86
    17.2600        92
    17.2800        78
    17.3000        98
    17.3200        88
    17.3400        86
    17.3600        94
    17.3800        96
    17.4000       108
    17.4200        94
    17.4400       108
    17.4600        84
    17.4800        88
    17.5000        96
    17.5200        88
    17.5400        90
    17.5600        98
    17.5800       118
    17.6000       130
    17.6200        94
    17.6400       120
    17.6600       118
    17.6800       118
    17.7000       136
    17.7200       106
    17.7400       140
    17.7600       146
    17.7800       160
    17.8000       184
    17.8200       174
    17.8400       184
    17.8600       174
    17.8800       148
    17.9000       162
    17.9200       156
    17.9400       122
    17.9600       126
    17.9800       104
    18.0000       124
    18.0200       104
    18.0400       134
    18.0600        92
    18.0800        76
    18.1000       104
    18.1200       102
    18.1400        80
    18.1600        82
    18.1800        76
    18.2000        96
    18.2200        90
    18.2400       106
    18.2600        94
    18.2800       100
    18.3000        98
    18.3200       100
    18.3400        76
    18.3600        94
    18.3800       102
    18.4000        78
    18.4200        70
    18.4400        90
    18.4600        76
    18.4800        80
    18.5000        98
    18.5200       110
    18.5400        82
    18.5600       104
    18.5800        80
    18.6000        80
    18.6200       118
    18.6400       112
    18.6600       102
    18.6800       114
    18.7000       108
    18.7200        88
    18.7400       106
    18.7600        90
    18.7800       102
    18.8000        74
    18.8200       106
    18.8400       110
    18.8600        98
    18.8800       110
    18.9000       104
    18.9200        96
    18.9400        74
    18.9600       106
    18.9800       116
    19.0000       112
    19.0200        98
    19.0400       106
    19.0600        92
    19.0800        88
    19.1000       110
    19.1200       100
    19.1400       102
    19.1600       120
    19.1800        84
    19.2000        98
    19.2200       126
    19.2400       108
    19.2600       102
    19.2800        90
    19.3000       110
    19.3200        96
    19.3400        96
    19.3600       112
    19.3800       118
    19.4000       110
    19.4200       114
    19.4400       110
    19.4600       136
    19.4800       104
    19.5000       120
    19.5200       120
    19.5400       114
    19.5600       126
    19.5800       122
    19.6000       112
    19.6200       112
    19.6400       136
    19.6600        92
    19.6800       140
    19.7000       148
    19.7200       146
    19.7400       128
    19.7600       136
    19.7800       124
    19.8000       138
    19.8200       146
    19.8400       130
    19.8600       140
    19.8800       148
    19.9000       150
    19.9200       124
    19.9400       128
    19.9600       128
    19.9800       124
    20.0000       114
    20.0200       120
    20.0400       128
    20.0600       116
    20.0800       132
    20.1000       142
    20.1200       130
    20.1400       136
    20.1600       108
    20.1800       118
    20.2000       162
    20.2200       134
    20.2400       132
    20.2600       122
    20.2800       144
    20.3000       114
    20.3200       168
    20.3400       160
    20.3600       148
    20.3800       162
    20.4000       178
    20.4200       172
    20.4400       202
    20.4600       194
    20.4800       178
    20.5000       232
    20.5200       258
    20.5400       238
    20.5600       274
    20.5800       326
    20.6000       324
    20.6200       352
    20.6400       386
    20.6600       486
    20.6800       610
    20.7000       676
    20.7200       744
    20.7400       942
    20.7600       988
    20.7800       982
    20.8000       860
    20.8200       650
    20.8400       532
    20.8600       382
    20.8800       290
    20.9000       228
    20.9200       166
    20.9400       174
    20.9600       172
    20.9800       188
    21.0000       164
    21.0200       160
    21.0400       148
    21.0600       150
    21.0800       164
    21.1000       170
    21.1200       134
    21.1400       148
    21.1600       152
    21.1800       132
    21.2000       144
    21.2200       142
    21.2400       130
    21.2600       132
    21.2800       140
    21.3000       142
    21.3200       154
    21.3400       174
    21.3600       132
    21.3800       146
    21.4000       148
    21.4200       142
    21.4400       148
    21.4600       146
    21.4800       134
    21.5000       128
    21.5200       136
    21.5400       128
    21.5600       114
    21.5800       168
    21.6000       178
    21.6200       126
    21.6400       134
    21.6600       122
    21.6800       158
    21.7000       128
    21.7200       144
    21.7400       142
    21.7600       124
    21.7800       128
    21.8000       152
    21.8200       158
    21.8400       146
    21.8600       128
    21.8800       128
    21.9000       132
    21.9200       122
    21.9400       140
    21.9600       144
    21.9800       158
    22.0000       156
    22.0200       142
    22.0400       148
    22.0600       124
    22.0800       138
    22.1000       132
    22.1200       128
    22.1400       144
    22.1600       150
    22.1800       150
    22.2000       142
    22.2200       152
    22.2400       140
    22.2600       150
    22.2800       136
    22.3000       148
    22.3200       144
    22.3400       136
    22.3600       170
    22.3800       118
    22.4000       114
    22.4200       124
    22.4400       130
    22.4600       128
    22.4800       146
    22.5000       140
    22.5200       132
    22.5400       110
    22.5600       132
    22.5800       134
    22.6000       134
    22.6200       148
    22.6400       146
    22.6600       150
    22.6800       138
    22.7000       118
    22.7200       130
    22.7400       146
    22.7600       136
    22.7800       138
    22.8000       104
    22.8200       124
    22.8400       124
    22.8600       106
    22.8800       130
    22.9000       144
    22.9200       128
    22.9400       124
    22.9600       148
    22.9800       122
    23.0000       146
    23.0200       124
    23.0400       140
    23.0600       130
    23.0800       130
    23.1000       140
    23.1200       132
    23.1400       146
    23.1600       154
    23.1800        96
    23.2000       138
    23.2200       124
    23.2400       138
    23.2600       132
    23.2800       136
    23.3000       128
    23.3200       140
    23.3400       128
    23.3600       148
    23.3800       150
    23.4000       132
    23.4200       144
    23.4400       130
    23.4600       120
    23.4800       144
    23.5000       136
    23.5200       124
    23.5400       136
    23.5600       132
    23.5800       136
    23.6000       122
    23.6200       130
    23.6400       116
    23.6600       132
    23.6800       112
    23.7000       124
    23.7200       120
    23.7400       128
    23.7600       154
    23.7800       130
    23.8000       138
    23.8200       136
    23.8400       134
    23.8600       134
    23.8800       174
    23.9000       138
    23.9200       132
    23.9400       132
    23.9600       162
    23.9800       134
    24.0000       124
    24.0200       132
    24.0400       124
    24.0600       118
    24.0800       128
    24.1000       114
    24.1200       118
    24.1400       116
    24.1600       124
    24.1800       142
    24.2000       114
    24.2200       134
    24.2400       132
    24.2600       128
    24.2800       114
    24.3000       130
    24.3200       124
    24.3400       120
    24.3600       148
    24.3800       108
    24.4000       138
    24.4200       132
    24.4400       134
    24.4600       126
    24.4800       114
    24.5000       108
    24.5200       154
    24.5400       130
    24.5600       128
    24.5800       140
    24.6000       130
    24.6200       134
    24.6400       144
    24.6600       150
    24.6800       120
    24.7000       148
    24.7200       168
    24.7400       146
    24.7600       166
    24.7800       146
    24.8000       160
    24.8200       148
    24.8400       168
    24.8600       152
    24.8800       152
    24.9000       164
    24.9200       132
    24.9400       136
    24.9600       146
    24.9800       164
    25.0000       158
    25.0200       134
    25.0400       132
    25.0600       146
    25.0800       150
    25.1000       174
    25.1200       164
    25.1400       146
    25.1600       152
    25.1800       164
    25.2000       194
    25.2200       178
    25.2400       194
    25.2600       204
    25.2800       212
    25.3000       176
    25.3200       190
    25.3400       206
    25.3600       184
    25.3800       182
    25.4000       164
    25.4200       186
    25.4400       152
    25.4600       152
    25.4800       126
    25.5000       132
    25.5200       130
    25.5400       138
    25.5600       112
    25.5800       132
    25.6000       130
    25.6200       140
    25.6400       134
    25.6600       108
    25.6800       130
    25.7000       118
    25.7200       126
    25.7400       132
    25.7600       122
    25.7800       118
    25.8000       114
    25.8200       116
    25.8400       120
    25.8600       150
    25.8800       118
    25.9000       132
    25.9200       124
    25.9400       106
    25.9600       130
    25.9800       140
    26.0000       134
    26.0200       150
    26.0400       146
    26.0600       152
    26.0800       144
    26.1000       174
    26.1200       170
    26.1400       184
    26.1600       218
    26.1800       232
    26.2000       290
    26.2200       292
    26.2400       354
    26.2600       386
    26.2800       506
    26.3000       558
    26.3200       640
    26.3400       748
    26.3600       886
    26.3800      1136
    26.4000      1544
    26.4200      2056
    26.4400      2644
    26.4600      3320
    26.4800      4222
    26.5000      5096
    26.5200      5642
    26.5400      5804
    26.5600      5374
    26.5800      4770
    26.6000      3696
    26.6200      2928
    26.6400      2084
    26.6600      1306
    26.6800       874
    26.7000       594
    26.7200       406
    26.7400       300
    26.7600       266
    26.7800       246
    26.8000       226
    26.8200       184
    26.8400       180
    26.8600       164
    26.8800       156
    26.9000       118
    26.9200       144
    26.9400       140
    26.9600       116
    26.9800       124
    27.0000       114
    27.0200       144
    27.0400       114
    27.0600       110
    27.0800        90
    27.1000       112
    27.1200       102
    27.1400       110
    27.1600       130
    27.1800        96
    27.2000       114
    27.2200       128
    27.2400       114
    27.2600       108
    27.2800       116
    27.3000       130
    27.3200       128
    27.3400       116
    27.3600       148
    27.3800       164
    27.4000       146
    27.4200       142
    27.4400       148
    27.4600       114
    27.4800       104
    27.5000       118
    27.5200        82
    27.5400        82
    27.5600        84
    27.5800        88
    27.6000       104
    27.6200        92
    27.6400        96
    27.6600        84
    27.6800        96
    27.7000        98
    27.7200        76
    27.7400       106
    27.7600        96
    27.7800        96
    27.8000       108
    27.8200       108
    27.8400       100
    27.8600        94
    27.8800        90
    27.9000        88
    27.9200        86
    27.9400        90
    27.9600        82
    27.9800        82
    28.0000        82
    28.0200        90
    28.0400        86
    28.0600        92
    28.0800        88
    28.1000        80
    28.1200        84
    28.1400        78
    28.1600        94
    28.1800        84
    28.2000        86
    28.2200        76
    28.2400        72
    28.2600        88
    28.2800        76
    28.3000        82
    28.3200        86
    28.3400        76
    28.3600        84
    28.3800        86
    28.4000        94
    28.4200        92
    28.4400        82
    28.4600        86
    28.4800        86
    28.5000        88
    28.5200        80
    28.5400        82
    28.5600        62
    28.5800        80
    28.6000        74
    28.6200        96
    28.6400        88
    28.6600        82
    28.6800        64
    28.7000        72
    28.7200        80
    28.7400        84
    28.7600        80
    28.7800        76
    28.8000        96
    28.8200        84
    28.8400        88
    28.8600        94
    28.8800        78
    28.9000       112
    28.9200       112
    28.9400        94
    28.9600       126
    28.9800        96
    29.0000       112
    29.0200       116
    29.0400       108
    29.0600       102
    29.0800        98
    29.1000        96
    29.1200        98
    29.1400       100
    29.1600        84
    29.1800        78
    29.2000        92
    29.2200        94
    29.2400       102
    29.2600        88
    29.2800        90
    29.3000        76
    29.3200        88
    29.3400       102
    29.3600       108
    29.3800       102
    29.4000       108
    29.4200        84
    29.4400        78
    29.4600       104
    29.4800       106
    29.5000       106
    29.5200       132
    29.5400       112
    29.5600       130
    29.5800       142
    29.6000       164
    29.6200       158
    29.6400       148
    29.6600       178
    29.6800       222
    29.7000       206
    29.7200       260
    29.7400       290
    29.7600       294
    29.7800       300
    29.8000       304
    29.8200       338
    29.8400       312
    29.8600       310
    29.8800       286
    29.9000       266
    29.9200       232
    29.9400       234
    29.9600       228
    29.9800       192
    30.0000       158
    30.0200       142
    30.0400       132
    30.0600       122
    30.0800       120
    30.1000       106
    30.1200        96
    30.1400        98
    30.1600       112
    30.1800        86
    30.2000        90
    30.2200        84
    30.2400        64
    30.2600        76
    30.2800        92
    30.3000        88
    30.3200        64
    30.3400        68
    30.3600        76
    30.3800        74
    30.4000        76
    30.4200        56
    30.4400        56
    30.4600        68
    30.4800        72
    30.5000        70
    30.5200        84
    30.5400        68
    30.5600        84
    30.5800        76
    30.6000        60
    30.6200        60
    30.6400        72
    30.6600        74
    30.6800        64
    30.7000        86
    30.7200        74
    30.7400        76
    30.7600        76
    30.7800        64
    30.8000        84
    30.8200        72
    30.8400        60
    30.8600        76
    30.8800        78
    30.9000        82
    30.9200        82
    30.9400        74
    30.9600        80
    30.9800        66
    31.0000        88
    31.0200        84
    31.0400        72
    31.0600        74
    31.0800        62
    31.1000        66
    31.1200       100
    31.1400        88
    31.1600        78
    31.1800        80
    31.2000        84
    31.2200        72
    31.2400        68
    31.2600        82
    31.2800        86
    31.3000        82
    31.3200        80
    31.3400        88
    31.3600        66
    31.3800        96
    31.4000        60
    31.4200        74
    31.4400        80
    31.4600        82
    31.4800        74
    31.5000        68
    31.5200        84
    31.5400        82
    31.5600        88
    31.5800        84
    31.6000        86
    31.6200        76
    31.6400        76
    31.6600        68
    31.6800        84
    31.7000        68
    31.7200        74
    31.7400        58
    31.7600        66
    31.7800        86
    31.8000        72
    31.8200        72
    31.8400        80
    31.8600        72
    31.8800        72
    31.9000        58
    31.9200        58
    31.9400        72
    31.9600        60
    31.9800        78
    32.0000        72
    32.0200        58
    32.0400        50
    32.0600        70
    32.0800        76
    32.1000        58
    32.1200        82
    32.1400        74
    32.1600        70
    32.1800        62
    32.2000        50
    32.2200        70
    32.2400        66
    32.2600        54
    32.2800        60
    32.3000        54
    32.3200        66
    32.3400        62
    32.3600        50
    32.3800        66
    32.4000        54
    32.4200        56
    32.4400        42
    32.4600        54
    32.4800        56
    32.5000        74
    32.5200        64
    32.5400        50
    32.5600        66
    32.5800        52
    32.6000        68
    32.6200        62
    32.6400        78
    32.6600        78
    32.6800        62
    32.7000        58
    32.7200        60
    32.7400        72
    32.7600        54
    32.7800        56
    32.8000        50
    32.8200        58
    32.8400        54
    32.8600        50
    32.8800        58
    32.9000        60
    32.9200        54
    32.9400        58
    32.9600        64
    32.9800        38
    33.0000        56
    33.0200        76
    33.0400        60
    33.0600        62
    33.0800        54
    33.1000        52
    33.1200        56
    33.1400        62
    33.1600        56
    33.1800        62
    33.2000        66
    33.2200        62
    33.2400        56
    33.2600        70
    33.2800        82
    33.3000        84
    33.3200        66
    33.3400        68
    33.3600        76
    33.3800        82
    33.4000        66
    33.4200        50
    33.4400        62
    33.4600        50
    33.4800        66
    33.5000        62
    33.5200        52
    33.5400        74
    33.5600        62
    33.5800        50
    33.6000        48
    33.6200        40
    33.6400        60
    33.6600        62
    33.6800        52
    33.7000        44
    33.7200        72
    33.7400        50
    33.7600        56
    33.7800        64
    33.8000        58
    33.8200        50
    33.8400        66
    33.8600        52
    33.8800        66
    33.9000        58
    33.9200        58
    33.9400        56
    33.9600        58
    33.9800        52
    34.0000        54
    34.0200        48
    34.0400        52
    34.0600        50
    34.0800        56
    34.1000        66
    34.1200        40
    34.1400        54
    34.1600        50
    34.1800        60
    34.2000        46
    34.2200        64
    34.2400        56
    34.2600        54
    34.2800        62
    34.3000        66
    34.3200        66
    34.3400        52
    34.3600        66
    34.3800        70
    34.4000        62
    34.4200        56
    34.4400        48
    34.4600        58
    34.4800        48
    34.5000        58
    34.5200        50
    34.5400        62
    34.5600        72
    34.5800        60
    34.6000        48
    34.6200        48
    34.6400        76
    34.6600        50
    34.6800        52
    34.7000        70
    34.7200        58
    34.7400        66
    34.7600        68
    34.7800        72
    34.8000        84
    34.8200        60
    34.8400        60
    34.8600        74
    34.8800        78
    34.9000        70
    34.9200        54
    34.9400        74
    34.9600        64
    34.9800        72
    35.0000        72
    35.0200        78
    35.0400        62
    35.0600        56
    35.0800        60
    35.1000        62
    35.1200        58
    35.1400        52
    35.1600        76
    35.1800        56
    35.2000        70
    35.2200        74
    35.2400        68
    35.2600        76
    35.2800        64
    35.3000        54
    35.3200        66
    35.3400        48
    35.3600        54
    35.3800        72
    35.4000        64
    35.4200        68
    35.4400        60
    35.4600        74
    35.4800        66
    35.5000        52
    35.5200        72
    35.5400        62
    35.5600        56
    35.5800        76
    35.6000        52
    35.6200        70
    35.6400        52
    35.6600        54
    35.6800        70
    35.7000        54
    35.7200        70
    35.7400        70
    35.7600        62
    35.7800        68
    35.8000        64
    35.8200        74
    35.8400        52
    35.8600        54
    35.8800        68
    35.9000        76
    35.9200        66
    35.9400        74
    35.9600        76
    35.9800        72
    36.0000        58
    36.0200        76
    36.0400        66
    36.0600        72
    36.0800        76
    36.1000        78
    36.1200        76
    36.1400        98
    36.1600        72
    36.1800        90
    36.2000        84
    36.2200        98
    36.2400       118
    36.2600       122
    36.2800       142
    36.3000       162
    36.3200       176
    36.3400       204
    36.3600       240
    36.3800       320
    36.4000       392
    36.4200       390
    36.4400       448
    36.4600       448
    36.4800       420
    36.5000       366
    36.5200       264
    36.5400       242
    36.5600       204
    36.5800       188
    36.6000       104
    36.6200       102
    36.6400        90
    36.6600        64
    36.6800        96
    36.7000        68
    36.7200        60
    36.7400        72
    36.7600        76
    36.7800        38
    36.8000        50
    36.8200        50
    36.8400        70
    36.8600        74
    36.8800        50
    36.9000        66
    36.9200        56
    36.9400        58
    36.9600        62
    36.9800        54
    37.0000        60
    37.0200        46
    37.0400        66
    37.0600        62
    37.0800        60
    37.1000        42
    37.1200        48
    37.1400        58
    37.1600        48
    37.1800        58
    37.2000        40
    37.2200        58
    37.2400        54
    37.2600        60
    37.2800        62
    37.3000        42
    37.3200        56
    37.3400        44
    37.3600        66
    37.3800        48
    37.4000        56
    37.4200        66
    37.4400        62
    37.4600        52
    37.4800        54
    37.5000        70
    37.5200        60
    37.5400        54
    37.5600        60
    37.5800        56
    37.6000        62
    37.6200        58
    37.6400        62
    37.6600        76
    37.6800        54
    37.7000        58
    37.7200        60
    37.7400        64
    37.7600        68
    37.7800        48
    37.8000        74
    37.8200        54
    37.8400        64
    37.8600        54
    37.8800        46
    37.9000        52
    37.9200        50
    37.9400        52
    37.9600        58
    37.9800        50
    38.0000        50
    38.0200        48
    38.0400        68
    38.0600        64
    38.0800        50
    38.1000        50
    38.1200        66
    38.1400        66
    38.1600        56
    38.1800        68
    38.2000        60
    38.2200        72
    38.2400        54
    38.2600        70
    38.2800        76
    38.3000        74
    38.3200        64
    38.3400        60
    38.3600        74
    38.3800        64
    38.4000        64
    38.4200        50
    38.4400        64
    38.4600        70
    38.4800        66
    38.5000        58
    38.5200        62
    38.5400        70
    38.5600        62
    38.5800        56
    38.6000        48
    38.6200        60
    38.6400        50
    38.6600        60
    38.6800        56
    38.7000        50
    38.7200        48
    38.7400        46
    38.7600        54
    38.7800        64
    38.8000        52
    38.8200        56
    38.8400        62
    38.8600        54
    38.8800        60
    38.9000        60
    38.9200        58
    38.9400        50
    38.9600        60
    38.9800        58
    39.0000        62
    39.0200        64
    39.0400        78
    39.0600        70
    39.0800        84
    39.1000        88
    39.1200        72
    39.1400        62
    39.1600        88
    39.1800       104
    39.2000       102
    39.2200       116
    39.2400       158
    39.2600       152
    39.2800       196
    39.3000       256
    39.3200       306
    39.3400       354
    39.3600       360
    39.3800       340
    39.4000       308
    39.4200       286
    39.4400       244
    39.4600       210
    39.4800       206
    39.5000       190
    39.5200       150
    39.5400       120
    39.5600       112
    39.5800        88
    39.6000        78
    39.6200        98
    39.6400       102
    39.6600       104
    39.6800        84
    39.7000        98
    39.7200       104
    39.7400        96
    39.7600        98
    39.7800        92
    39.8000        88
    39.8200        88
    39.8400        92
    39.8600        84
    39.8800       102
    39.9000        92
    39.9200        88
    39.9400       104
    39.9600       100
    39.9800        94
    40.0000       100
    40.0200        92
    40.0400        98
    40.0600        98
    40.0800       122
    40.1000       128
    40.1200       172
    40.1400       206
    40.1600       212
    40.1800       206
    40.2000       204
    40.2200       198
    40.2400       180
    40.2600       166
    40.2800       162
    40.3000       122
    40.3200        96
    40.3400        80
    40.3600        82
    40.3800        76
    40.4000        74
    40.4200        76
    40.4400        76
    40.4600        50
    40.4800        66
    40.5000        60
    40.5200        72
    40.5400        64
    40.5600        76
    40.5800        56
    40.6000        62
    40.6200        74
    40.6400        54
    40.6600        78
    40.6800        56
    40.7000        60
    40.7200        58
    40.7400        54
    40.7600        60
    40.7800        62
    40.8000        60
    40.8200        60
    40.8400        44
    40.8600        56
    40.8800        50
    40.9000        48
    40.9200        62
    40.9400        48
    40.9600        52
    40.9800        44
    41.0000        50
    41.0200        58
    41.0400        44
    41.0600        48
    41.0800        40
    41.1000        64
    41.1200        58
    41.1400        48
    41.1600        42
    41.1800        58
    41.2000        38
    41.2200        48
    41.2400        52
    41.2600        50
    41.2800        40
    41.3000        40
    41.3200        44
    41.3400        50
    41.3600        42
    41.3800        54
    41.4000        36
    41.4200        46
    41.4400        62
    41.4600        54
    41.4800        48
    41.5000        50
    41.5200        48
    41.5400        46
    41.5600        54
    41.5800        56
    41.6000        52
    41.6200        44
    41.6400        54
    41.6600        48
    41.6800        54
    41.7000        46
    41.7200        46
    41.7400        56
    41.7600        50
    41.7800        60
    41.8000        48
    41.8200        56
    41.8400        54
    41.8600        42
    41.8800        42
    41.9000        48
    41.9200        48
    41.9400        46
    41.9600        60
    41.9800        40
    42.0000        54
    42.0200        40
    42.0400        64
    42.0600        48
    42.0800        58
    42.1000        60
    42.1200        62
    42.1400        74
    42.1600        70
    42.1800        78
    42.2000       102
    42.2200       104
    42.2400       150
    42.2600       188
    42.2800       240
    42.3000       294
    42.3200       348
    42.3400       416
    42.3600       386
    42.3800       356
    42.4000       294
    42.4200       230
    42.4400       214
    42.4600       248
    42.4800       164
    42.5000       146
    42.5200       108
    42.5400        88
    42.5600        74
    42.5800        66
    42.6000        66
    42.6200        54
    42.6400        50
    42.6600        44
    42.6800        42
    42.7000        50
    42.7200        56
    42.7400        58
    42.7600        38
    42.7800        54
    42.8000        48
    42.8200        56
    42.8400        44
    42.8600        48
    42.8800        50
    42.9000        40
    42.9200        40
    42.9400        42
    42.9600        46
    42.9800        42
    43.0000        56
    43.0200        54
    43.0400        58
    43.0600        50
    43.0800        42
    43.1000        48
    43.1200        44
    43.1400        62
    43.1600        44
    43.1800        50
    43.2000        58
    43.2200        40
    43.2400        52
    43.2600        48
    43.2800        58
    43.3000        58
    43.3200        36
    43.3400        52
    43.3600        62
    43.3800        48
    43.4000        56
    43.4200        48
    43.4400        58
    43.4600        64
    43.4800        58
    43.5000        50
    43.5200        48
    43.5400        46
    43.5600        54
    43.5800        36
    43.6000        60
    43.6200        44
    43.6400        54
    43.6600        50
    43.6800        36
    43.7000        44
    43.7200        50
    43.7400        50
    43.7600        56
    43.7800        50
    43.8000        48
    43.8200        50
    43.8400        40
    43.8600        46
    43.8800        46
    43.9000        48
    43.9200        40
    43.9400        48
    43.9600        38
    43.9800        40
    44.0000        46
    44.0200        48
    44.0400        36
    44.0600        46
    44.0800        42
    44.1000        32
    44.1200        52
    44.1400        46
    44.1600        44
    44.1800        52
    44.2000        50
    44.2200        60
    44.2400        50
    44.2600        42
    44.2800        50
    44.3000        44
    44.3200        44
    44.3400        48
    44.3600        40
    44.3800        44
    44.4000        32
    44.4200        36
    44.4400        40
    44.4600        48
    44.4800        48
    44.5000        48
    44.5200        54
    44.5400        38
    44.5600        44
    44.5800        46
    44.6000        54
    44.6200        62
    44.6400        54
    44.6600        48
    44.6800        50
    44.7000        44
    44.7200        42
    44.7400        46
    44.7600        40
    44.7800        62
    44.8000        48
    44.8200        44
    44.8400        54
    44.8600        52
    44.8800        48
    44.9000        56
    44.9200        40
    44.9400        58
    44.9600        52
    44.9800        66
    45.0000        38
    45.0200        44
    45.0400        62
    45.0600        54
    45.0800        36
    45.1000        56
    45.1200        48
    45.1400        42
    45.1600        44
    45.1800        56
    45.2000        56
    45.2200        60
    45.2400        48
    45.2600        60
    45.2800        50
    45.3000        72
    45.3200        58
    45.3400        48
    45.3600        70
    45.3800        64
    45.4000        66
    45.4200        58
    45.4400        58
    45.4600        68
    45.4800        68
    45.5000        76
    45.5200        66
    45.5400        92
    45.5600        74
    45.5800       110
    45.6000       102
    45.6200       154
    45.6400       186
    45.6600       222
    45.6800       190
    45.7000       212
    45.7200       240
    45.7400       204
    45.7600       160
    45.7800       150
    45.8000       144
    45.8200       110
    45.8400       104
    45.8600        92
    45.8800        90
    45.9000        92
    45.9200        76
    45.9400        64
    45.9600        42
    45.9800        50
    46.0000        58
    46.0200        62
    46.0400        42
    46.0600        44
    46.0800        58
    46.1000        44
    46.1200        44
    46.1400        44
    46.1600        36
    46.1800        50
    46.2000        56
    46.2200        46
    46.2400        50
    46.2600        44
    46.2800        46
    46.3000        48
    46.3200        48
    46.3400        36
    46.3600        60
    46.3800        38
    46.4000        52
    46.4200        46
    46.4400        48
    46.4600        50
    46.4800        60
    46.5000        42
    46.5200        40
    46.5400        50
    46.5600        48
    46.5800        44
    46.6000        42
    46.6200        52
    46.6400        38
    46.6600        40
    46.6800        48
    46.7000        54
    46.7200        56
    46.7400        46
    46.7600        52
    46.7800        54
    46.8000        48
    46.8200        46
    46.8400        62
    46.8600        50
    46.8800        44
    46.9000        54
    46.9200        36
    46.9400        50
    46.9600        44
    46.9800        54
    47.0000        52
    47.0200        48
    47.0400        54
    47.0600        62
    47.0800        52
    47.1000        52
    47.1200        40
    47.1400        66
    47.1600        64
    47.1800        54
    47.2000        42
    47.2200        58
    47.2400        60
    47.2600        46
    47.2800        58
    47.3000        60
    47.3200        50
    47.3400        58
    47.3600        52
    47.3800        86
    47.4000        82
    47.4200        84
    47.4400        84
    47.4600        78
    47.4800        96
    47.5000        88
    47.5200       108
    47.5400       110
    47.5600       110
    47.5800        98
    47.6000       114
    47.6200       116
    47.6400       102
    47.6600       104
    47.6800        92
    47.7000        98
    47.7200        78
    47.7400        88
    47.7600        80
    47.7800        84
    47.8000        72
    47.8200        54
    47.8400        66
    47.8600        74
    47.8800        72
    47.9000        64
    47.9200        70
    47.9400        60
    47.9600        70
    47.9800        50
    48.0000        64
    48.0200        60
    48.0400        66
    48.0600        62
    48.0800        48
    48.1000        62
    48.1200        42
    48.1400        46
    48.1600        56
    48.1800        52
    48.2000        40
    48.2200        56
    48.2400        52
    48.2600        56
    48.2800        54
    48.3000        72
    48.3200        52
    48.3400        44
    48.3600        54
    48.3800        50
    48.4000        52
    48.4200        48
    48.4400        44
    48.4600        34
    48.4800        52
    48.5000        54
    48.5200        44
    48.5400        60
    48.5600        34
    48.5800        48
    48.6000        34
    48.6200        44
    48.6400        46
    48.6600        44
    48.6800        48
    48.7000        42
    48.7200        50
    48.7400        46
    48.7600        48
    48.7800        56
    48.8000        30
    48.8200        38
    48.8400        46
    48.8600        46
    48.8800        52
    48.9000        62
    48.9200        52
    48.9400        54
    48.9600        46
    48.9800        42
    49.0000        54
    49.0200        48
    49.0400        52
    49.0600        44
    49.0800        46
    49.1000        64
    49.1200        46
    49.1400        34
    49.1600        42
    49.1800        46
    49.2000        60
    49.2200        44
    49.2400        44
    49.2600        48
    49.2800        48
    49.3000        30
    49.3200        44
    49.3400        54
    49.3600        48
    49.3800        38
    49.4000        46
    49.4200        38
    49.4400        50
    49.4600        40
    49.4800        48
    49.5000        52
    49.5200        42
    49.5400        54
    49.5600        52
    49.5800        54
    49.6000        46
    49.6200        46
    49.6400        62
    49.6600        66
    49.6800        54
    49.7000        78
    49.7200        74
    49.7400        60
    49.7600        68
    49.7800        80
    49.8000        84
    49.8200        74
    49.8400        92
    49.8600       104
    49.8800       114
    49.9000       170
    49.9200       210
    49.9400       276
    49.9600       440
    49.9800       552
    50.0000       672
    50.0200       746
    50.0400       728
    50.0600       678
    50.0800       502
    50.1000       424
    50.1200       426
    50.1400       436
    50.1600       386
    50.1800       374
    50.2000       288
    50.2200       200
    50.2400       144
    50.2600       102
    50.2800       108
    50.3000        76
    50.3200        64
    50.3400        78
    50.3600        78
    50.3800        68
    50.4000        64
    50.4200        54
    50.4400        68
    50.4600        56
    50.4800        52
    50.5000        54
    50.5200        62
    50.5400        72
    50.5600        58
    50.5800        58
    50.6000        52
    50.6200        56
    50.6400        58
    50.6600        50
    50.6800        38
    50.7000        52
    50.7200        40
    50.7400        42
    50.7600        42
    50.7800        46
    50.8000        48
    50.8200        40
    50.8400        44
    50.8600        40
    50.8800        56
    50.9000        58
    50.9200        42
    50.9400        42
    50.9600        54
    50.9800        48
    51.0000        48
    51.0200        52
    51.0400        54
    51.0600        40
    51.0800        50
    51.1000        56
    51.1200        50
    51.1400        54
    51.1600        46
    51.1800        50
    51.2000        50
    51.2200        50
    51.2400        50
    51.2600        44
    51.2800        64
    51.3000        50
    51.3200        32
    51.3400        50
    51.3600        40
    51.3800        46
    51.4000        32
    51.4200        40
    51.4400        54
    51.4600        56
    51.4800        54
    51.5000        30
    51.5200        42
    51.5400        32
    51.5600        42
    51.5800        40
    51.6000        60
    51.6200        56
    51.6400        46
    51.6600        60
    51.6800        54
    51.7000        48
    51.7200        54
    51.7400        62
    51.7600        52
    51.7800        38
    51.8000        56
    51.8200        52
    51.8400        58
    51.8600        70
    51.8800        50
    51.9000        70
    51.9200        74
    51.9400        64
    51.9600        70
    51.9800        90
    52.0000        72
    52.0200        88
    52.0400        92
    52.0600        82
    52.0800        96
    52.1000        76
    52.1200        66
    52.1400        70
    52.1600        64
    52.1800        72
    52.2000        80
    52.2200        66
    52.2400        86
    52.2600        60
    52.2800        76
    52.3000        80
    52.3200        62
    52.3400        46
    52.3600        56
    52.3800        48
    52.4000        58
    52.4200        38
    52.4400        52
    52.4600        54
    52.4800        46
    52.5000        58
    52.5200        48
    52.5400        48
    52.5600        30
    52.5800        60
    52.6000        52
    52.6200        54
    52.6400        46
    52.6600        44
    52.6800        36
    52.7000        40
    52.7200        54
    52.7400        42
    52.7600        42
    52.7800        44
    52.8000        44
    52.8200        30
    52.8400        66
    52.8600        46
    52.8800        44
    52.9000        36
    52.9200        36
    52.9400        38
    52.9600        38
    52.9800        58
    53.0000        44
    53.0200        50
    53.0400        46
    53.0600        42
    53.0800        44
    53.1000        38
    53.1200        44
    53.1400        42
    53.1600        46
    53.1800        44
    53.2000        40
    53.2200        52
    53.2400        36
    53.2600        50
    53.2800        44
    53.3000        38
    53.3200        42
    53.3400        40
    53.3600        50
    53.3800        36
    53.4000        50
    53.4200        38
    53.4400        46
    53.4600        38
    53.4800        44
    53.5000        42
    53.5200        70
    53.5400        38
    53.5600        46
    53.5800        38
    53.6000        60
    53.6200        62
    53.6400        32
    53.6600        48
    53.6800        36
    53.7000        48
    53.7200        62
    53.7400        32
    53.7600        56
    53.7800        44
    53.8000        42
    53.8200        52
    53.8400        52
    53.8600        40
    53.8800        38
    53.9000        54
    53.9200        42
    53.9400        44
    53.9600        44
    53.9800        60
    54.0000        46
    54.0200        48
    54.0400        34
    54.0600        52
    54.0800        66
    54.1000        40
    54.1200        52
    54.1400        46
    54.1600        50
    54.1800        50
    54.2000        60
    54.2200        42
    54.2400        52
    54.2600        52
    54.2800        46
    54.3000        42
    54.3200        50
    54.3400        46
    54.3600        52
    54.3800        50
    54.4000        50
    54.4200        46
    54.4400        44
    54.4600        54
    54.4800        48
    54.5000        44
    54.5200        50
    54.5400        54
    54.5600        60
    54.5800        76
    54.6000        86
    54.6200        76
    54.6400        92
    54.6600       126
    54.6800       142
    54.7000       168
    54.7200       190
    54.7400       232
    54.7600       212
    54.7800       248
    54.8000       210
    54.8200       168
    54.8400       158
    54.8600       184
    54.8800       160
    54.9000       152
    54.9200       142
    54.9400       144
    54.9600       114
    54.9800        92
    55.0000        80
    55.0200        64
    55.0400        62
    55.0600        72
    55.0800        78
    55.1000        76
    55.1200        96
    55.1400        86
    55.1600       100
    55.1800       134
    55.2000       106
    55.2200       118
    55.2400       118
    55.2600        86
    55.2800        90
    55.3000        94
    55.3200        98
    55.3400        80
    55.3600        92
    55.3800        76
    55.4000        58
    55.4200        62
    55.4400        66
    55.4600        60
    55.4800        52
    55.5000        58
    55.5200        58
    55.5400        66
    55.5600        56
    55.5800        60
    55.6000        60
    55.6200        50
    55.6400        42
    55.6600        50
    55.6800        46
    55.7000        40
    55.7200        50
    55.7400        52
    55.7600        38
    55.7800        48
    55.8000        60
    55.8200        60
    55.8400        60
    55.8600        52
    55.8800        48
    55.9000        58
    55.9200        60
    55.9400        56
    55.9600        44
    55.9800        66
    56.0000        48
    56.0200        48
    56.0400        50
    56.0600        44
    56.0800        50
    56.1000        42
    56.1200        54
    56.1400        42
    56.1600        44
    56.1800        50
    56.2000        40
    56.2200        52
    56.2400        56
    56.2600        52
    56.2800        34
    56.3000        30
    56.3200        50
    56.3400        56
    56.3600        48
    56.3800        44
    56.4000        46
    56.4200        48
    56.4400        44
    56.4600        40
    56.4800        56
    56.5000        44
    56.5200        54
    56.5400        38
    56.5600        40
    56.5800        40
    56.6000        56
    56.6200        44
    56.6400        46
    56.6600        36
    56.6800        36
    56.7000        56
    56.7200        50
    56.7400        50
    56.7600        42
    56.7800        52
    56.8000        50
    56.8200        44
    56.8400        56
    56.8600        44
    56.8800        44
    56.9000        44
    56.9200        50
    56.9400        32
    56.9600        44
    56.9800        52
    57.0000        42
    57.0200        54
    57.0400        48
    57.0600        44
    57.0800        56
    57.1000        64
    57.1200        54
    57.1400        52
    57.1600        62
    57.1800        52
    57.2000        44
    57.2200        36
    57.2400        56
    57.2600        48
    57.2800        60
    57.3000        50
    57.3200        64
    57.3400        42
    57.3600        42
    57.3800        32
    57.4000        40
    57.4200        44
    57.4400        42
    57.4600        44
    57.4800        48
    57.5000        56
    57.5200        56
    57.5400        32
    57.5600        62
    57.5800        56
    57.6000        38
    57.6200        38
    57.6400        34
    57.6600        46
    57.6800        54
    57.7000        46
    57.7200        38
    57.7400        44
    57.7600        36
    57.7800        42
    57.8000        46
    57.8200        38
    57.8400        40
    57.8600        44
    57.8800        50
    57.9000        44
    57.9200        48
    57.9400        52
    57.9600        44
    57.9800        42
    58.0000        36
    58.0200        46
    58.0400        40
    58.0600        42
    58.0800        50
    58.1000        30
    58.1200        48
    58.1400        50
    58.1600        48
    58.1800        40
    58.2000        46
    58.2200        46
    58.2400        60
    58.2600        56
    58.2800        50
    58.3000        44
    58.3200        44
    58.3400        42
    58.3600        44
    58.3800        52
    58.4000        36
    58.4200        54
    58.4400        42
    58.4600        38
    58.4800        52
    58.5000        42
    58.5200        40
    58.5400        54
    58.5600        42
    58.5800        46
    58.6000        40
    58.6200        40
    58.6400        40
    58.6600        50
    58.6800        50
    58.7000        42
    58.7200        50
    58.7400        52
    58.7600        50
    58.7800        62
    58.8000        48
    58.8200        38
    58.8400        34
    58.8600        46
    58.8800        54
    58.9000        52
    58.9200        52
    58.9400        54
    58.9600        38
    58.9800        64
    59.0000        52
    59.0200        50
    59.0400        48
    59.0600        66
    59.0800        50
    59.1000        54
    59.1200        48
    59.1400        60
    59.1600        46
    59.1800        46
    59.2000        36
    59.2200        46
    59.2400        44
    59.2600        48
    59.2800        52
    59.3000        40
    59.3200        56
    59.3400        36
    59.3600        52
    59.3800        64
    59.4000        40
    59.4200        58
    59.4400        44
    59.4600        56
    59.4800        38
    59.5000        62
    59.5200        58
    59.5400        66
    59.5600        60
    59.5800        82
    59.6000        66
    59.6200        84
    59.6400        82
    59.6600        74
    59.6800        90
    59.7000       104
    59.7200       120
    59.7400       180
    59.7600       250
    59.7800       348
    59.8000       390
    59.8200       444
    59.8400       524
    59.8600       462
    59.8800       430
    59.9000       352
    59.9200       272
    59.9400       266
    59.9600       282
    59.9800       250
    60.0000       282
    60.0200       258
    60.0400       246
    60.0600       206
    60.0800       164
    60.1000       106
    60.1200       116
    60.1400        82
    60.1600        64
    60.1800        64
    60.2000        72
    60.2200        72
    60.2400        56
    60.2600        62
    60.2800        44
    60.3000        46
    60.3200        58
    60.3400        40
    60.3600        48
    60.3800        52
    60.4000        50
    60.4200        64
    60.4400        44
    60.4600        40
    60.4800        50
    60.5000        48
    60.5200        58
    60.5400        50
    60.5600        44
    60.5800        46
    60.6000        40
    60.6200        50
    60.6400        24
    60.6600        56
    60.6800        50
    60.7000        54
    60.7200        52
    60.7400        48
    60.7600        44
    60.7800        46
    60.8000        48
    60.8200        54
    60.8400        58
    60.8600        58
    60.8800        54
    60.9000        46
    60.9200        44
    60.9400        40
    60.9600        50
    60.9800        54
    61.0000        42
    61.0200        52
    61.0400        44
    61.0600        42
    61.0800        50
    61.1000        50
    61.1200        52
    61.1400        54
    61.1600        54
    61.1800        50
    61.2000        52
    61.2200        68
    61.2400        42
    61.2600        56
    61.2800        62
    61.3000        40
    61.3200        50
    61.3400        62
    61.3600        68
    61.3800        46
    61.4000        48
    61.4200        54
    61.4400        34
    61.4600        42
    61.4800        52
    61.5000        58
    61.5200        42
    61.5400        46
    61.5600        48
    61.5800        44
    61.6000        58
    61.6200        50
    61.6400        40
    61.6600        62
    61.6800        48
    61.7000        62
    61.7200        38
    61.7400        60
    61.7600        60
    61.7800        50
    61.8000        72
    61.8200        54
    61.8400        64
    61.8600        72
    61.8800        44
    61.9000        50
    61.9200        52
    61.9400        60
    61.9600        44
    61.9800        84
    62.0000        66
    62.0200        62
    62.0400        86
    62.0600        56
    62.0800        76
    62.1000        48
    62.1200        86
    62.1400        68
    62.1600        82
    62.1800        72
    62.2000        78
    62.2200        78
    62.2400        78
    62.2600        66
    62.2800        72
    62.3000        56
    62.3200        76
    62.3400        58
    62.3600        72
    62.3800        54
    62.4000        70
    62.4200        74
    62.4400        56
    62.4600        66
    62.4800        68
    62.5000        78
    62.5200        50
    62.5400        66
    62.5600        56
    62.5800        74
    62.6000        58
    62.6200        60
    62.6400        60
    62.6600        62
    62.6800        60
    62.7000        48
    62.7200        60
    62.7400        64
    62.7600        50
    62.7800        38
    62.8000        44
    62.8200        52
    62.8400        58
    62.8600        54
    62.8800        54
    62.9000        58
    62.9200        62
    62.9400        40
    62.9600        48
    62.9800        42
    63.0000        40
    63.0200        40
    63.0400        58
    63.0600        56
    63.0800        46
    63.1000        52
    63.1200        60
    63.1400        64
    63.1600        44
    63.1800        38
    63.2000        34
    63.2200        42
    63.2400        40
    63.2600        42
    63.2800        42
    63.3000        42
    63.3200        30
    63.3400        44
    63.3600        40
    63.3800        36
    63.4000        46
    63.4200        54
    63.4400        56
    63.4600        38
    63.4800        42
    63.5000        56
    63.5200        40
    63.5400        42
    63.5600        36
    63.5800        44
    63.6000        48
    63.6200        40
    63.6400        58
    63.6600        48
    63.6800        48
    63.7000        50
    63.7200        38
    63.7400        46
    63.7600        58
    63.7800        38
    63.8000        60
    63.8200        58
    63.8400        76
    63.8600        98
    63.8800       124
    63.9000       110
    63.9200       118
    63.9400       150
    63.9600       122
    63.9800       110
    64.0000        88
    64.0200        72
    64.0400        66
    64.0600        80
    64.0800        82
    64.1000        96
    64.1200       104
    64.1400        96
    64.1600        80
    64.1800        68
    64.2000        44
    64.2200        62
    64.2400        62
    64.2600        48
    64.2800        50
    64.3000        54
    64.3200        48
    64.3400        38
    64.3600        54
    64.3800        52
    64.4000        42
    64.4200        52
    64.4400        38
    64.4600        60
    64.4800        38
    64.5000        40
    64.5200        32
    64.5400        44
    64.5600        28
    64.5800        44
    64.6000        54
    64.6200        44
    64.6400        48
    64.6600        42
    64.6800        36
    64.7000        52
    64.7200        54
    64.7400        46
    64.7600        58
    64.7800        44
    64.8000        50
    64.8200        54
    64.8400        48
    64.8600        50
    64.8800        48
    64.9000        42
    64.9200        62
    64.9400        50
    64.9600        54
    64.9800        44
    65.0000        50
