/////////////////////////////////////////////////////////////////////////////////
/// Profile Data Ascii Dump (XRD)                                             ///
/////////////////////////////////////////////////////////////////////////////////

  Group     : Swayze
  Data      : LakeChandler LC-5
  File Name : LakeChandler LC-5.RAW

# Profile Datafile
          comment             = Alunite 
          date & time         = 08-02-28 08:11:19 

# Measurement Condition
    X-ray tube
          target              = Cu 
          voltage             = 40.0 (kV)
          current             = 30.0 (mA)
    Slits
          divergence slit     = 2.00000 (deg) 
          scatter slit        = 2.00000 (deg) 
          receiving slit      = 0.15000 (mm)  
    Scanning
          drive axis          = Theta-2Theta 
          scan range          =    4.000 -   65.000 
          scan mode           = Continuous Scan 
          scan speed          =   2.0000 (deg/min) 
          sampling pitch      =   0.0200 (deg) 
          preset time         =   0.60 (sec) 

# Data      [ Total No. = 3051 ]
  <2Theta>   <   I   >
     4.0000       200
     4.0200       190
     4.0400       196
     4.0600       190
     4.0800       200
     4.1000       228
     4.1200       202
     4.1400       202
     4.1600       174
     4.1800       182
     4.2000       196
     4.2200       186
     4.2400       190
     4.2600       206
     4.2800       196
     4.3000       186
     4.3200       178
     4.3400       200
     4.3600       182
     4.3800       160
     4.4000       202
     4.4200       172
     4.4400       184
     4.4600       198
     4.4800       182
     4.5000       180
     4.5200       196
     4.5400       204
     4.5600       200
     4.5800       188
     4.6000       162
     4.6200       176
     4.6400       178
     4.6600       154
     4.6800       184
     4.7000       170
     4.7200       170
     4.7400       166
     4.7600       180
     4.7800       176
     4.8000       190
     4.8200       188
     4.8400       190
     4.8600       196
     4.8800       192
     4.9000       172
     4.9200       158
     4.9400       176
     4.9600       184
     4.9800       162
     5.0000       212
     5.0200       196
     5.0400       170
     5.0600       164
     5.0800       184
     5.1000       184
     5.1200       190
     5.1400       164
     5.1600       194
     5.1800       206
     5.2000       186
     5.2200       204
     5.2400       190
     5.2600       178
     5.2800       186
     5.3000       168
     5.3200       148
     5.3400       180
     5.3600       180
     5.3800       146
     5.4000       156
     5.4200       174
     5.4400       168
     5.4600       162
     5.4800       162
     5.5000       162
     5.5200       172
     5.5400       186
     5.5600       162
     5.5800       194
     5.6000       154
     5.6200       170
     5.6400       174
     5.6600       178
     5.6800       182
     5.7000       178
     5.7200       174
     5.7400       174
     5.7600       170
     5.7800       172
     5.8000       164
     5.8200       176
     5.8400       190
     5.8600       186
     5.8800       190
     5.9000       174
     5.9200       170
     5.9400       164
     5.9600       172
     5.9800       170
     6.0000       170
     6.0200       182
     6.0400       196
     6.0600       184
     6.0800       176
     6.1000       172
     6.1200       172
     6.1400       174
     6.1600       168
     6.1800       132
     6.2000       184
     6.2200       162
     6.2400       160
     6.2600       132
     6.2800       152
     6.3000       158
     6.3200       136
     6.3400       140
     6.3600       144
     6.3800       154
     6.4000       168
     6.4200       150
     6.4400       158
     6.4600       160
     6.4800       152
     6.5000       158
     6.5200       136
     6.5400       152
     6.5600       144
     6.5800       160
     6.6000       186
     6.6200       160
     6.6400       152
     6.6600       142
     6.6800       160
     6.7000       132
     6.7200       156
     6.7400       154
     6.7600       138
     6.7800       140
     6.8000       134
     6.8200       140
     6.8400       144
     6.8600       126
     6.8800       150
     6.9000       136
     6.9200       142
     6.9400       136
     6.9600       132
     6.9800       146
     7.0000       126
     7.0200       146
     7.0400       146
     7.0600       162
     7.0800       158
     7.1000       136
     7.1200       134
     7.1400       148
     7.1600       136
     7.1800       136
     7.2000       144
     7.2200       136
     7.2400       130
     7.2600       134
     7.2800       150
     7.3000       126
     7.3200       138
     7.3400       126
     7.3600       124
     7.3800       138
     7.4000       148
     7.4200       134
     7.4400       122
     7.4600       146
     7.4800       122
     7.5000       120
     7.5200       122
     7.5400       110
     7.5600       112
     7.5800       118
     7.6000       124
     7.6200       138
     7.6400       106
     7.6600       132
     7.6800       148
     7.7000       124
     7.7200       116
     7.7400       132
     7.7600       122
     7.7800       116
     7.8000       118
     7.8200       140
     7.8400       146
     7.8600       114
     7.8800       114
     7.9000       114
     7.9200       132
     7.9400       132
     7.9600       128
     7.9800       140
     8.0000       102
     8.0200       130
     8.0400       122
     8.0600       132
     8.0800       118
     8.1000       134
     8.1200       128
     8.1400       118
     8.1600       120
     8.1800       112
     8.2000       124
     8.2200       124
     8.2400       126
     8.2600       126
     8.2800       146
     8.3000       130
     8.3200       128
     8.3400       128
     8.3600       130
     8.3800       114
     8.4000       112
     8.4200       136
     8.4400       110
     8.4600       130
     8.4800       112
     8.5000       140
     8.5200       116
     8.5400       146
     8.5600       122
     8.5800       132
     8.6000       110
     8.6200       134
     8.6400       138
     8.6600       136
     8.6800       136
     8.7000       134
     8.7200       118
     8.7400       128
     8.7600       112
     8.7800       136
     8.8000       108
     8.8200       130
     8.8400       128
     8.8600       134
     8.8800       124
     8.9000       122
     8.9200       122
     8.9400       128
     8.9600       134
     8.9800       138
     9.0000       112
     9.0200       128
     9.0400       130
     9.0600       118
     9.0800       116
     9.1000       106
     9.1200       114
     9.1400       142
     9.1600       136
     9.1800       136
     9.2000       118
     9.2200       114
     9.2400       126
     9.2600       126
     9.2800       104
     9.3000       120
     9.3200       138
     9.3400       126
     9.3600       132
     9.3800       122
     9.4000       140
     9.4200       116
     9.4400       118
     9.4600       132
     9.4800       112
     9.5000       122
     9.5200       130
     9.5400       124
     9.5600       122
     9.5800       114
     9.6000       146
     9.6200       112
     9.6400       140
     9.6600       114
     9.6800       116
     9.7000       130
     9.7200       116
     9.7400       122
     9.7600       140
     9.7800       130
     9.8000       130
     9.8200       136
     9.8400       130
     9.8600       134
     9.8800       114
     9.9000       114
     9.9200       150
     9.9400       102
     9.9600       142
     9.9800       114
    10.0000       108
    10.0200       130
    10.0400       110
    10.0600       104
    10.0800       124
    10.1000       138
    10.1200       102
    10.1400       116
    10.1600        96
    10.1800       102
    10.2000       128
    10.2200       112
    10.2400       130
    10.2600       124
    10.2800        92
    10.3000       116
    10.3200       108
    10.3400       100
    10.3600       108
    10.3800        98
    10.4000       108
    10.4200       108
    10.4400       104
    10.4600       100
    10.4800       124
    10.5000       116
    10.5200       116
    10.5400       106
    10.5600        96
    10.5800       114
    10.6000        94
    10.6200       112
    10.6400        98
    10.6600       100
    10.6800       104
    10.7000        90
    10.7200       114
    10.7400        92
    10.7600       104
    10.7800       106
    10.8000       126
    10.8200       112
    10.8400        90
    10.8600        84
    10.8800        90
    10.9000       102
    10.9200       106
    10.9400       118
    10.9600        86
    10.9800        98
    11.0000        96
    11.0200        86
    11.0400       114
    11.0600        98
    11.0800       100
    11.1000        94
    11.1200       112
    11.1400       114
    11.1600        98
    11.1800        92
    11.2000       100
    11.2200       102
    11.2400       114
    11.2600       110
    11.2800        94
    11.3000        94
    11.3200       104
    11.3400       102
    11.3600       100
    11.3800       116
    11.4000        90
    11.4200       104
    11.4400        98
    11.4600        96
    11.4800        82
    11.5000        80
    11.5200       100
    11.5400        90
    11.5600        84
    11.5800        86
    11.6000       104
    11.6200        74
    11.6400        88
    11.6600        92
    11.6800       100
    11.7000       108
    11.7200       100
    11.7400        88
    11.7600        92
    11.7800       104
    11.8000       106
    11.8200        98
    11.8400       110
    11.8600       100
    11.8800        90
    11.9000       102
    11.9200       102
    11.9400       106
    11.9600       108
    11.9800        94
    12.0000        88
    12.0200        94
    12.0400        92
    12.0600       112
    12.0800       108
    12.1000       100
    12.1200       108
    12.1400       118
    12.1600       110
    12.1800       118
    12.2000       112
    12.2200       104
    12.2400       104
    12.2600       106
    12.2800       124
    12.3000       120
    12.3200       104
    12.3400        96
    12.3600        94
    12.3800       110
    12.4000        86
    12.4200        84
    12.4400       106
    12.4600        94
    12.4800        88
    12.5000       106
    12.5200        80
    12.5400       100
    12.5600        82
    12.5800        82
    12.6000        80
    12.6200        86
    12.6400        82
    12.6600        68
    12.6800        90
    12.7000        74
    12.7200        80
    12.7400        92
    12.7600        76
    12.7800        74
    12.8000        74
    12.8200        96
    12.8400        76
    12.8600        76
    12.8800        94
    12.9000        86
    12.9200        74
    12.9400        74
    12.9600       100
    12.9800        84
    13.0000        80
    13.0200        64
    13.0400        94
    13.0600        86
    13.0800        74
    13.1000        84
    13.1200        82
    13.1400        94
    13.1600        80
    13.1800        88
    13.2000        78
    13.2200        72
    13.2400        74
    13.2600        98
    13.2800        90
    13.3000        80
    13.3200        74
    13.3400        76
    13.3600        76
    13.3800        76
    13.4000        76
    13.4200        62
    13.4400        58
    13.4600        78
    13.4800        86
    13.5000        70
    13.5200        84
    13.5400        74
    13.5600        78
    13.5800        72
    13.6000        82
    13.6200        76
    13.6400        84
    13.6600        76
    13.6800        92
    13.7000        64
    13.7200        58
    13.7400        82
    13.7600        58
    13.7800        96
    13.8000        72
    13.8200        80
    13.8400        68
    13.8600        74
    13.8800        78
    13.9000        76
    13.9200        90
    13.9400        62
    13.9600        64
    13.9800        84
    14.0000        64
    14.0200        74
    14.0400        78
    14.0600        62
    14.0800        78
    14.1000        84
    14.1200        78
    14.1400        62
    14.1600        80
    14.1800        80
    14.2000        94
    14.2200        96
    14.2400        90
    14.2600        86
    14.2800        84
    14.3000        66
    14.3200        84
    14.3400        72
    14.3600        86
    14.3800        52
    14.4000        82
    14.4200        76
    14.4400        82
    14.4600        70
    14.4800        86
    14.5000        74
    14.5200        64
    14.5400        80
    14.5600        70
    14.5800        84
    14.6000        80
    14.6200        72
    14.6400        72
    14.6600        80
    14.6800        82
    14.7000        86
    14.7200        94
    14.7400        94
    14.7600        78
    14.7800        74
    14.8000        84
    14.8200        80
    14.8400        84
    14.8600        72
    14.8800        80
    14.9000        78
    14.9200        80
    14.9400        96
    14.9600        82
    14.9800        94
    15.0000        86
    15.0200       102
    15.0400        94
    15.0600        92
    15.0800       108
    15.1000       112
    15.1200        98
    15.1400        98
    15.1600       126
    15.1800       138
    15.2000       130
    15.2200       144
    15.2400       172
    15.2600       124
    15.2800       170
    15.3000       230
    15.3200       230
    15.3400       260
    15.3600       276
    15.3800       330
    15.4000       284
    15.4200       298
    15.4400       250
    15.4600       206
    15.4800       132
    15.5000       132
    15.5200       108
    15.5400        90
    15.5600        80
    15.5800        78
    15.6000        86
    15.6200        96
    15.6400        78
    15.6600        80
    15.6800        66
    15.7000        66
    15.7200        82
    15.7400        82
    15.7600        90
    15.7800        76
    15.8000        86
    15.8200        68
    15.8400        60
    15.8600        58
    15.8800        68
    15.9000        56
    15.9200        76
    15.9400        56
    15.9600        72
    15.9800        84
    16.0000        72
    16.0200        70
    16.0400        78
    16.0600        90
    16.0800        70
    16.1000        70
    16.1200        74
    16.1400        68
    16.1600        96
    16.1800        80
    16.2000        58
    16.2200        76
    16.2400        70
    16.2600        84
    16.2800        70
    16.3000        70
    16.3200        62
    16.3400        76
    16.3600        76
    16.3800        76
    16.4000        80
    16.4200        72
    16.4400        80
    16.4600        88
    16.4800        82
    16.5000        86
    16.5200        66
    16.5400        70
    16.5600        68
    16.5800        82
    16.6000        68
    16.6200        72
    16.6400        78
    16.6600        72
    16.6800        64
    16.7000        80
    16.7200        60
    16.7400        58
    16.7600        66
    16.7800        66
    16.8000        74
    16.8200        60
    16.8400        68
    16.8600        92
    16.8800        72
    16.9000        82
    16.9200        72
    16.9400        76
    16.9600        64
    16.9800        90
    17.0000        82
    17.0200        70
    17.0400        88
    17.0600        70
    17.0800        70
    17.1000        82
    17.1200        82
    17.1400        78
    17.1600        88
    17.1800        72
    17.2000        84
    17.2200        90
    17.2400        94
    17.2600        82
    17.2800        84
    17.3000       114
    17.3200        90
    17.3400        90
    17.3600       120
    17.3800       114
    17.4000       116
    17.4200       106
    17.4400       122
    17.4600       146
    17.4800       150
    17.5000       154
    17.5200       166
    17.5400       176
    17.5600       196
    17.5800       202
    17.6000       228
    17.6200       294
    17.6400       304
    17.6600       348
    17.6800       404
    17.7000       514
    17.7200       630
    17.7400       658
    17.7600       778
    17.7800       844
    17.8000       834
    17.8200       730
    17.8400       680
    17.8600       474
    17.8800       388
    17.9000       280
    17.9200       196
    17.9400       170
    17.9600       140
    17.9800       112
    18.0000       110
    18.0200       100
    18.0400        84
    18.0600        86
    18.0800       106
    18.1000       108
    18.1200        86
    18.1400        76
    18.1600        92
    18.1800        92
    18.2000        78
    18.2200        66
    18.2400        78
    18.2600        80
    18.2800        86
    18.3000        68
    18.3200        70
    18.3400        80
    18.3600        92
    18.3800        72
    18.4000        78
    18.4200        72
    18.4400        86
    18.4600        82
    18.4800        78
    18.5000        74
    18.5200        66
    18.5400        82
    18.5600        76
    18.5800        92
    18.6000        58
    18.6200        74
    18.6400        72
    18.6600        82
    18.6800        68
    18.7000        78
    18.7200        54
    18.7400        70
    18.7600        66
    18.7800        62
    18.8000        86
    18.8200        72
    18.8400        70
    18.8600        96
    18.8800        74
    18.9000        84
    18.9200        86
    18.9400        78
    18.9600        68
    18.9800        86
    19.0000        68
    19.0200        74
    19.0400        88
    19.0600        78
    19.0800       102
    19.1000        64
    19.1200        74
    19.1400        72
    19.1600        88
    19.1800        98
    19.2000        86
    19.2200        72
    19.2400        80
    19.2600        76
    19.2800        70
    19.3000        66
    19.3200        82
    19.3400        82
    19.3600        72
    19.3800        88
    19.4000        84
    19.4200        70
    19.4400        60
    19.4600        66
    19.4800        88
    19.5000        72
    19.5200        86
    19.5400        78
    19.5600        66
    19.5800        88
    19.6000        80
    19.6200       104
    19.6400        84
    19.6600        96
    19.6800        86
    19.7000        76
    19.7200        80
    19.7400        94
    19.7600        98
    19.7800       102
    19.8000        92
    19.8200        94
    19.8400        84
    19.8600        78
    19.8800       104
    19.9000        80
    19.9200        80
    19.9400        92
    19.9600        86
    19.9800        90
    20.0000        98
    20.0200        92
    20.0400        76
    20.0600        92
    20.0800        90
    20.1000       108
    20.1200        96
    20.1400        86
    20.1600        88
    20.1800       104
    20.2000        86
    20.2200        80
    20.2400       108
    20.2600       114
    20.2800        78
    20.3000        86
    20.3200        86
    20.3400        94
    20.3600        68
    20.3800        94
    20.4000        92
    20.4200        86
    20.4400        86
    20.4600        98
    20.4800        82
    20.5000        88
    20.5200       102
    20.5400        84
    20.5600       106
    20.5800        90
    20.6000        92
    20.6200       102
    20.6400        88
    20.6600       108
    20.6800       102
    20.7000       100
    20.7200       102
    20.7400       134
    20.7600       120
    20.7800       110
    20.8000       118
    20.8200        94
    20.8400        90
    20.8600       104
    20.8800       100
    20.9000       108
    20.9200        98
    20.9400        90
    20.9600        82
    20.9800        86
    21.0000        76
    21.0200        72
    21.0400       104
    21.0600        80
    21.0800        90
    21.1000        96
    21.1200        88
    21.1400       106
    21.1600        88
    21.1800        76
    21.2000        84
    21.2200        84
    21.2400        86
    21.2600        86
    21.2800        96
    21.3000        76
    21.3200        88
    21.3400        86
    21.3600        86
    21.3800        96
    21.4000       120
    21.4200       102
    21.4400       100
    21.4600       106
    21.4800       122
    21.5000       120
    21.5200       128
    21.5400       114
    21.5600       110
    21.5800       130
    21.6000       100
    21.6200       116
    21.6400       108
    21.6600       104
    21.6800       102
    21.7000        86
    21.7200       106
    21.7400        90
    21.7600        62
    21.7800       102
    21.8000       106
    21.8200        88
    21.8400        72
    21.8600        70
    21.8800        82
    21.9000        90
    21.9200       110
    21.9400        84
    21.9600        78
    21.9800        80
    22.0000        76
    22.0200        78
    22.0400        92
    22.0600        92
    22.0800        88
    22.1000       102
    22.1200       102
    22.1400        82
    22.1600        86
    22.1800        82
    22.2000       100
    22.2200        92
    22.2400       104
    22.2600        82
    22.2800        84
    22.3000        94
    22.3200        90
    22.3400       102
    22.3600        76
    22.3800        82
    22.4000        94
    22.4200        78
    22.4400       100
    22.4600        76
    22.4800        92
    22.5000       106
    22.5200        80
    22.5400        82
    22.5600        90
    22.5800        76
    22.6000        88
    22.6200        84
    22.6400        94
    22.6600        92
    22.6800        88
    22.7000        98
    22.7200       100
    22.7400       100
    22.7600        84
    22.7800        76
    22.8000        84
    22.8200        82
    22.8400       100
    22.8600        70
    22.8800        80
    22.9000        82
    22.9200        68
    22.9400        90
    22.9600        90
    22.9800        84
    23.0000        80
    23.0200        90
    23.0400        96
    23.0600        80
    23.0800        72
    23.1000        90
    23.1200        72
    23.1400        92
    23.1600        98
    23.1800       100
    23.2000        86
    23.2200        84
    23.2400        88
    23.2600        80
    23.2800        70
    23.3000        84
    23.3200       104
    23.3400        86
    23.3600        98
    23.3800        98
    23.4000        92
    23.4200        96
    23.4400        72
    23.4600        64
    23.4800        90
    23.5000        98
    23.5200        84
    23.5400        88
    23.5600        86
    23.5800        86
    23.6000        78
    23.6200        80
    23.6400        82
    23.6600        86
    23.6800        60
    23.7000        74
    23.7200        94
    23.7400        92
    23.7600        86
    23.7800        66
    23.8000        86
    23.8200       100
    23.8400        96
    23.8600       102
    23.8800        78
    23.9000        90
    23.9200        72
    23.9400        70
    23.9600        84
    23.9800        98
    24.0000        92
    24.0200        88
    24.0400        80
    24.0600        72
    24.0800        74
    24.1000        74
    24.1200        92
    24.1400        72
    24.1600        82
    24.1800        96
    24.2000        86
    24.2200        76
    24.2400        88
    24.2600        78
    24.2800        78
    24.3000        86
    24.3200       102
    24.3400        60
    24.3600        80
    24.3800       106
    24.4000        82
    24.4200        96
    24.4400        80
    24.4600        88
    24.4800        96
    24.5000        84
    24.5200        78
    24.5400        88
    24.5600        82
    24.5800        92
    24.6000        76
    24.6200        98
    24.6400        86
    24.6600        92
    24.6800       128
    24.7000        98
    24.7200        88
    24.7400       112
    24.7600        96
    24.7800        94
    24.8000       116
    24.8200       118
    24.8400       100
    24.8600       106
    24.8800       116
    24.9000       102
    24.9200       128
    24.9400       126
    24.9600       116
    24.9800       106
    25.0000       106
    25.0200       136
    25.0400       140
    25.0600       126
    25.0800       120
    25.1000       148
    25.1200       178
    25.1400       192
    25.1600       236
    25.1800       272
    25.2000       322
    25.2200       352
    25.2400       434
    25.2600       482
    25.2800       626
    25.3000       658
    25.3200       698
    25.3400       686
    25.3600       662
    25.3800       634
    25.4000       566
    25.4200       416
    25.4400       358
    25.4600       296
    25.4800       160
    25.5000       170
    25.5200       138
    25.5400       110
    25.5600       106
    25.5800       118
    25.6000        94
    25.6200        96
    25.6400       104
    25.6600        98
    25.6800       106
    25.7000        90
    25.7200        84
    25.7400        74
    25.7600        86
    25.7800        72
    25.8000        90
    25.8200        66
    25.8400        78
    25.8600        76
    25.8800        80
    25.9000        74
    25.9200        98
    25.9400        94
    25.9600        80
    25.9800        56
    26.0000        94
    26.0200        78
    26.0400        80
    26.0600        72
    26.0800        78
    26.1000        74
    26.1200        90
    26.1400        80
    26.1600        66
    26.1800        72
    26.2000        78
    26.2200        80
    26.2400        78
    26.2600        60
    26.2800        86
    26.3000        92
    26.3200        92
    26.3400       104
    26.3600        86
    26.3800        84
    26.4000       100
    26.4200       104
    26.4400       106
    26.4600       126
    26.4800       118
    26.5000       132
    26.5200       140
    26.5400       180
    26.5600       134
    26.5800       138
    26.6000       122
    26.6200        96
    26.6400       102
    26.6600       110
    26.6800       102
    26.7000        98
    26.7200        94
    26.7400        80
    26.7600        78
    26.7800       100
    26.8000        78
    26.8200        88
    26.8400        90
    26.8600        84
    26.8800        94
    26.9000        90
    26.9200        88
    26.9400        96
    26.9600        84
    26.9800        72
    27.0000        90
    27.0200        86
    27.0400        88
    27.0600        72
    27.0800        78
    27.1000        70
    27.1200        90
    27.1400        80
    27.1600        80
    27.1800        70
    27.2000       108
    27.2200        76
    27.2400        94
    27.2600        86
    27.2800        90
    27.3000        92
    27.3200       102
    27.3400        92
    27.3600        86
    27.3800        90
    27.4000        82
    27.4200        64
    27.4400        86
    27.4600        94
    27.4800        84
    27.5000        66
    27.5200        62
    27.5400        80
    27.5600        60
    27.5800        68
    27.6000        66
    27.6200        62
    27.6400        56
    27.6600        74
    27.6800        72
    27.7000        98
    27.7200        68
    27.7400        60
    27.7600        66
    27.7800        68
    27.8000        70
    27.8200        84
    27.8400        92
    27.8600        80
    27.8800        74
    27.9000        84
    27.9200        78
    27.9400        92
    27.9600        76
    27.9800        62
    28.0000        62
    28.0200        78
    28.0400        60
    28.0600        62
    28.0800        56
    28.1000        64
    28.1200        60
    28.1400        78
    28.1600        68
    28.1800        70
    28.2000        72
    28.2200        74
    28.2400        52
    28.2600        54
    28.2800        68
    28.3000        78
    28.3200        62
    28.3400        80
    28.3600        86
    28.3800        76
    28.4000        64
    28.4200        74
    28.4400        82
    28.4600        72
    28.4800        62
    28.5000        92
    28.5200        76
    28.5400        82
    28.5600        68
    28.5800        82
    28.6000        78
    28.6200        84
    28.6400        86
    28.6600        80
    28.6800        66
    28.7000        66
    28.7200        76
    28.7400        76
    28.7600        80
    28.7800        74
    28.8000        66
    28.8200        88
    28.8400        66
    28.8600        66
    28.8800        90
    28.9000        84
    28.9200        64
    28.9400        96
    28.9600        88
    28.9800        82
    29.0000        90
    29.0200        80
    29.0400       108
    29.0600        90
    29.0800        76
    29.1000        78
    29.1200        98
    29.1400        74
    29.1600        84
    29.1800        80
    29.2000        98
    29.2200        88
    29.2400        88
    29.2600       132
    29.2800       106
    29.3000       112
    29.3200       128
    29.3400       122
    29.3600       138
    29.3800       140
    29.4000       172
    29.4200       192
    29.4400       214
    29.4600       228
    29.4800       236
    29.5000       270
    29.5200       318
    29.5400       368
    29.5600       468
    29.5800       562
    29.6000       666
    29.6200       800
    29.6400       954
    29.6600      1230
    29.6800      1520
    29.7000      1804
    29.7200      2134
    29.7400      2450
    29.7600      2550
    29.7800      2666
    29.8000      2662
    29.8200      2544
    29.8400      2306
    29.8600      1872
    29.8800      1540
    29.9000      1160
    29.9200       888
    29.9400       674
    29.9600       480
    29.9800       394
    30.0000       300
    30.0200       236
    30.0400       168
    30.0600       206
    30.0800       152
    30.1000       136
    30.1200       138
    30.1400       106
    30.1600       118
    30.1800        94
    30.2000       102
    30.2200        96
    30.2400       106
    30.2600       104
    30.2800        88
    30.3000        74
    30.3200        74
    30.3400        70
    30.3600        72
    30.3800        76
    30.4000       102
    30.4200        70
    30.4400        94
    30.4600        64
    30.4800        96
    30.5000        80
    30.5200        74
    30.5400        58
    30.5600        74
    30.5800        96
    30.6000        70
    30.6200        74
    30.6400        82
    30.6600        72
    30.6800        94
    30.7000        80
    30.7200       106
    30.7400        94
    30.7600       100
    30.7800       114
    30.8000       100
    30.8200       120
    30.8400       118
    30.8600       144
    30.8800       132
    30.9000       198
    30.9200       216
    30.9400       226
    30.9600       196
    30.9800       214
    31.0000       246
    31.0200       242
    31.0400       222
    31.0600       216
    31.0800       214
    31.1000       178
    31.1200       152
    31.1400       136
    31.1600       130
    31.1800       110
    31.2000       102
    31.2200        92
    31.2400        72
    31.2600        86
    31.2800        70
    31.3000        60
    31.3200        64
    31.3400        90
    31.3600        96
    31.3800       106
    31.4000        94
    31.4200        68
    31.4400        96
    31.4600       122
    31.4800       128
    31.5000       152
    31.5200       180
    31.5400       208
    31.5600       242
    31.5800       278
    31.6000       282
    31.6200       260
    31.6400       234
    31.6600       192
    31.6800       176
    31.7000       166
    31.7200       154
    31.7400       102
    31.7600        74
    31.7800        68
    31.8000        72
    31.8200        62
    31.8400        70
    31.8600        76
    31.8800        60
    31.9000        50
    31.9200        56
    31.9400        64
    31.9600        44
    31.9800        82
    32.0000        54
    32.0200        50
    32.0400        52
    32.0600        66
    32.0800        52
    32.1000        54
    32.1200        40
    32.1400        36
    32.1600        54
    32.1800        62
    32.2000        42
    32.2200        28
    32.2400        56
    32.2600        48
    32.2800        52
    32.3000        54
    32.3200        48
    32.3400        50
    32.3600        48
    32.3800        44
    32.4000        62
    32.4200        50
    32.4400        64
    32.4600        58
    32.4800        52
    32.5000        68
    32.5200        66
    32.5400        52
    32.5600        64
    32.5800        66
    32.6000        80
    32.6200        60
    32.6400        62
    32.6600        82
    32.6800        80
    32.7000        80
    32.7200        66
    32.7400        86
    32.7600        78
    32.7800        74
    32.8000        72
    32.8200        52
    32.8400        60
    32.8600        56
    32.8800        58
    32.9000        50
    32.9200        50
    32.9400        36
    32.9600        54
    32.9800        64
    33.0000        52
    33.0200        60
    33.0400        50
    33.0600        50
    33.0800        64
    33.1000        44
    33.1200        52
    33.1400        54
    33.1600        64
    33.1800        56
    33.2000        52
    33.2200        52
    33.2400        58
    33.2600        62
    33.2800        30
    33.3000        44
    33.3200        52
    33.3400        58
    33.3600        56
    33.3800        52
    33.4000        42
    33.4200        58
    33.4400        72
    33.4600        52
    33.4800        56
    33.5000        54
    33.5200        48
    33.5400        48
    33.5600        62
    33.5800        66
    33.6000        66
    33.6200        62
    33.6400        50
    33.6600        68
    33.6800        70
    33.7000        72
    33.7200        80
    33.7400        74
    33.7600        96
    33.7800        80
    33.8000        86
    33.8200        74
    33.8400        76
    33.8600        90
    33.8800        60
    33.9000        66
    33.9200        66
    33.9400        60
    33.9600        54
    33.9800        48
    34.0000        60
    34.0200        54
    34.0400        70
    34.0600        60
    34.0800        50
    34.1000        50
    34.1200        58
    34.1400        44
    34.1600        54
    34.1800        64
    34.2000        50
    34.2200        58
    34.2400        58
    34.2600        46
    34.2800        58
    34.3000        56
    34.3200        50
    34.3400        48
    34.3600        64
    34.3800        52
    34.4000        60
    34.4200        46
    34.4400        56
    34.4600        56
    34.4800        52
    34.5000        48
    34.5200        56
    34.5400        56
    34.5600        56
    34.5800        48
    34.6000        72
    34.6200        36
    34.6400        60
    34.6600        64
    34.6800        60
    34.7000        62
    34.7200        62
    34.7400        52
    34.7600        48
    34.7800        54
    34.8000        60
    34.8200        50
    34.8400        50
    34.8600        66
    34.8800        76
    34.9000        66
    34.9200        56
    34.9400        56
    34.9600        62
    34.9800        48
    35.0000        46
    35.0200        66
    35.0400        58
    35.0600        56
    35.0800        60
    35.1000        54
    35.1200        50
    35.1400        54
    35.1600        66
    35.1800        56
    35.2000        42
    35.2200        50
    35.2400        48
    35.2600        56
    35.2800        56
    35.3000        56
    35.3200        52
    35.3400        58
    35.3600        58
    35.3800        44
    35.4000        54
    35.4200        50
    35.4400        52
    35.4600        48
    35.4800        64
    35.5000        52
    35.5200        66
    35.5400        42
    35.5600        46
    35.5800        48
    35.6000        50
    35.6200        44
    35.6400        48
    35.6600        56
    35.6800        44
    35.7000        66
    35.7200        52
    35.7400        58
    35.7600        58
    35.7800        56
    35.8000        68
    35.8200        60
    35.8400        60
    35.8600        62
    35.8800        66
    35.9000        64
    35.9200        70
    35.9400        72
    35.9600        84
    35.9800        72
    36.0000        98
    36.0200        98
    36.0400       122
    36.0600       128
    36.0800       142
    36.1000       136
    36.1200       130
    36.1400       140
    36.1600       116
    36.1800       104
    36.2000        98
    36.2200       104
    36.2400        92
    36.2600        74
    36.2800        74
    36.3000        74
    36.3200        56
    36.3400        56
    36.3600        62
    36.3800        64
    36.4000        60
    36.4200        58
    36.4400        60
    36.4600        54
    36.4800        60
    36.5000        66
    36.5200        66
    36.5400        62
    36.5600        50
    36.5800        46
    36.6000        40
    36.6200        44
    36.6400        40
    36.6600        36
    36.6800        46
    36.7000        62
    36.7200        40
    36.7400        38
    36.7600        36
    36.7800        56
    36.8000        44
    36.8200        52
    36.8400        58
    36.8600        58
    36.8800        54
    36.9000        48
    36.9200        50
    36.9400        60
    36.9600        48
    36.9800        48
    37.0000        44
    37.0200        50
    37.0400        58
    37.0600        54
    37.0800        44
    37.1000        46
    37.1200        38
    37.1400        44
    37.1600        42
    37.1800        52
    37.2000        68
    37.2200        52
    37.2400        44
    37.2600        52
    37.2800        50
    37.3000        54
    37.3200        48
    37.3400        44
    37.3600        50
    37.3800        58
    37.4000        58
    37.4200        46
    37.4400        42
    37.4600        54
    37.4800        58
    37.5000        56
    37.5200        42
    37.5400        58
    37.5600        50
    37.5800        54
    37.6000        52
    37.6200        72
    37.6400        48
    37.6600        58
    37.6800        44
    37.7000        56
    37.7200        60
    37.7400        66
    37.7600        52
    37.7800        50
    37.8000        52
    37.8200        42
    37.8400        40
    37.8600        58
    37.8800        60
    37.9000        58
    37.9200        48
    37.9400        44
    37.9600        50
    37.9800        46
    38.0000        50
    38.0200        50
    38.0400        60
    38.0600        50
    38.0800        40
    38.1000        66
    38.1200        44
    38.1400        50
    38.1600        52
    38.1800        48
    38.2000        46
    38.2200        56
    38.2400        50
    38.2600        50
    38.2800        60
    38.3000        78
    38.3200        52
    38.3400        54
    38.3600        54
    38.3800        70
    38.4000        64
    38.4200        64
    38.4400        56
    38.4600        58
    38.4800        66
    38.5000        46
    38.5200        56
    38.5400        64
    38.5600        46
    38.5800        62
    38.6000        36
    38.6200        48
    38.6400        60
    38.6600        52
    38.6800        70
    38.7000        60
    38.7200        64
    38.7400        50
    38.7600        58
    38.7800        52
    38.8000        64
    38.8200        64
    38.8400        76
    38.8600        70
    38.8800        86
    38.9000        58
    38.9200        80
    38.9400        90
    38.9600       100
    38.9800       108
    39.0000        80
    39.0200       102
    39.0400        98
    39.0600        72
    39.0800       106
    39.1000       114
    39.1200       108
    39.1400       150
    39.1600       148
    39.1800       192
    39.2000       200
    39.2200       198
    39.2400       268
    39.2600       356
    39.2800       352
    39.3000       480
    39.3200       498
    39.3400       600
    39.3600       658
    39.3800       720
    39.4000       728
    39.4200       698
    39.4400       692
    39.4600       666
    39.4800       556
    39.5000       480
    39.5200       434
    39.5400       352
    39.5600       308
    39.5800       230
    39.6000       192
    39.6200       146
    39.6400       132
    39.6600       110
    39.6800        98
    39.7000        96
    39.7200        88
    39.7400        62
    39.7600        58
    39.7800        64
    39.8000        44
    39.8200        66
    39.8400        62
    39.8600        60
    39.8800        74
    39.9000        50
    39.9200        64
    39.9400        40
    39.9600        50
    39.9800        38
    40.0000        56
    40.0200        60
    40.0400        50
    40.0600        52
    40.0800        48
    40.1000        50
    40.1200        46
    40.1400        60
    40.1600        50
    40.1800        60
    40.2000        46
    40.2200        74
    40.2400        60
    40.2600        72
    40.2800        70
    40.3000        74
    40.3200        72
    40.3400        66
    40.3600        64
    40.3800        80
    40.4000        76
    40.4200       112
    40.4400        66
    40.4600        90
    40.4800       100
    40.5000       120
    40.5200       118
    40.5400       144
    40.5600       184
    40.5800       176
    40.6000       184
    40.6200       188
    40.6400       192
    40.6600       194
    40.6800       172
    40.7000       164
    40.7200       116
    40.7400       130
    40.7600       104
    40.7800        82
    40.8000        92
    40.8200        68
    40.8400        54
    40.8600        56
    40.8800        34
    40.9000        52
    40.9200        52
    40.9400        48
    40.9600        36
    40.9800        40
    41.0000        44
    41.0200        28
    41.0400        56
    41.0600        38
    41.0800        52
    41.1000        46
    41.1200        44
    41.1400        48
    41.1600        60
    41.1800        42
    41.2000        52
    41.2200        32
    41.2400        48
    41.2600        48
    41.2800        48
    41.3000        44
    41.3200        38
    41.3400        38
    41.3600        40
    41.3800        38
    41.4000        36
    41.4200        46
    41.4400        44
    41.4600        44
    41.4800        38
    41.5000        48
    41.5200        44
    41.5400        50
    41.5600        36
    41.5800        30
    41.6000        42
    41.6200        42
    41.6400        40
    41.6600        42
    41.6800        30
    41.7000        38
    41.7200        42
    41.7400        40
    41.7600        46
    41.7800        52
    41.8000        40
    41.8200        40
    41.8400        44
    41.8600        48
    41.8800        54
    41.9000        36
    41.9200        30
    41.9400        34
    41.9600        50
    41.9800        46
    42.0000        38
    42.0200        52
    42.0400        36
    42.0600        36
    42.0800        40
    42.1000        44
    42.1200        44
    42.1400        48
    42.1600        26
    42.1800        50
    42.2000        46
    42.2200        46
    42.2400        38
    42.2600        46
    42.2800        42
    42.3000        56
    42.3200        44
    42.3400        50
    42.3600        36
    42.3800        44
    42.4000        42
    42.4200        42
    42.4400        58
    42.4600        42
    42.4800        52
    42.5000        50
    42.5200        50
    42.5400        36
    42.5600        48
    42.5800        42
    42.6000        48
    42.6200        46
    42.6400        38
    42.6600        46
    42.6800        50
    42.7000        52
    42.7200        36
    42.7400        36
    42.7600        44
    42.7800        36
    42.8000        32
    42.8200        32
    42.8400        42
    42.8600        36
    42.8800        42
    42.9000        28
    42.9200        42
    42.9400        36
    42.9600        44
    42.9800        26
    43.0000        30
    43.0200        36
    43.0400        46
    43.0600        34
    43.0800        38
    43.1000        46
    43.1200        38
    43.1400        30
    43.1600        38
    43.1800        42
    43.2000        46
    43.2200        34
    43.2400        26
    43.2600        34
    43.2800        50
    43.3000        40
    43.3200        36
    43.3400        36
    43.3600        42
    43.3800        46
    43.4000        36
    43.4200        40
    43.4400        26
    43.4600        34
    43.4800        48
    43.5000        52
    43.5200        26
    43.5400        52
    43.5600        44
    43.5800        40
    43.6000        42
    43.6200        40
    43.6400        50
    43.6600        44
    43.6800        28
    43.7000        42
    43.7200        40
    43.7400        46
    43.7600        48
    43.7800        36
    43.8000        52
    43.8200        42
    43.8400        38
    43.8600        36
    43.8800        38
    43.9000        48
    43.9200        34
    43.9400        70
    43.9600        36
    43.9800        40
    44.0000        42
    44.0200        32
    44.0400        46
    44.0600        32
    44.0800        50
    44.1000        54
    44.1200        56
    44.1400        50
    44.1600        52
    44.1800        46
    44.2000        36
    44.2200        36
    44.2400        40
    44.2600        32
    44.2800        44
    44.3000        44
    44.3200        56
    44.3400        48
    44.3600        32
    44.3800        42
    44.4000        50
    44.4200        58
    44.4400        56
    44.4600        54
    44.4800        44
    44.5000        38
    44.5200        72
    44.5400        52
    44.5600        80
    44.5800        58
    44.6000        84
    44.6200        60
    44.6400        78
    44.6600        76
    44.6800        76
    44.7000        70
    44.7200        50
    44.7400        66
    44.7600        56
    44.7800        46
    44.8000        64
    44.8200        52
    44.8400        60
    44.8600        68
    44.8800        64
    44.9000        42
    44.9200        48
    44.9400        40
    44.9600        36
    44.9800        56
    45.0000        40
    45.0200        52
    45.0400        34
    45.0600        38
    45.0800        42
    45.1000        58
    45.1200        60
    45.1400        48
    45.1600        72
    45.1800        54
    45.2000        74
    45.2200        86
    45.2400       102
    45.2600       104
    45.2800       102
    45.3000       162
    45.3200       168
    45.3400       134
    45.3600       134
    45.3800       132
    45.4000       110
    45.4200       106
    45.4400        90
    45.4600       108
    45.4800        84
    45.5000        88
    45.5200        80
    45.5400        66
    45.5600        52
    45.5800        50
    45.6000        46
    45.6200        56
    45.6400        50
    45.6600        62
    45.6800        46
    45.7000        48
    45.7200        50
    45.7400        36
    45.7600        38
    45.7800        44
    45.8000        36
    45.8200        42
    45.8400        44
    45.8600        34
    45.8800        38
    45.9000        38
    45.9200        52
    45.9400        44
    45.9600        30
    45.9800        44
    46.0000        42
    46.0200        36
    46.0400        32
    46.0600        40
    46.0800        34
    46.1000        54
    46.1200        42
    46.1400        40
    46.1600        38
    46.1800        44
    46.2000        42
    46.2200        30
    46.2400        38
    46.2600        46
    46.2800        30
    46.3000        46
    46.3200        56
    46.3400        44
    46.3600        42
    46.3800        48
    46.4000        36
    46.4200        46
    46.4400        40
    46.4600        38
    46.4800        50
    46.5000        40
    46.5200        50
    46.5400        52
    46.5600        50
    46.5800        50
    46.6000        30
    46.6200        42
    46.6400        46
    46.6600        40
    46.6800        48
    46.7000        48
    46.7200        42
    46.7400        38
    46.7600        44
    46.7800        54
    46.8000        46
    46.8200        44
    46.8400        54
    46.8600        50
    46.8800        46
    46.9000        52
    46.9200        36
    46.9400        48
    46.9600        40
    46.9800        42
    47.0000        76
    47.0200        56
    47.0400        52
    47.0600        58
    47.0800        50
    47.1000        68
    47.1200        80
    47.1400        74
    47.1600        80
    47.1800        82
    47.2000        92
    47.2200        94
    47.2400       112
    47.2600       126
    47.2800       146
    47.3000       168
    47.3200       184
    47.3400       202
    47.3600       224
    47.3800       204
    47.4000       278
    47.4200       254
    47.4400       342
    47.4600       354
    47.4800       410
    47.5000       498
    47.5200       614
    47.5400       688
    47.5600       692
    47.5800       740
    47.6000       758
    47.6200       644
    47.6400       616
    47.6600       576
    47.6800       540
    47.7000       444
    47.7200       404
    47.7400       326
    47.7600       260
    47.7800       214
    47.8000       180
    47.8200       160
    47.8400       122
    47.8600       114
    47.8800        92
    47.9000        74
    47.9200        60
    47.9400        72
    47.9600        56
    47.9800        64
    48.0000        50
    48.0200        44
    48.0400        36
    48.0600        46
    48.0800        44
    48.1000        52
    48.1200        48
    48.1400        52
    48.1600        46
    48.1800        40
    48.2000        36
    48.2200        48
    48.2400        44
    48.2600        32
    48.2800        46
    48.3000        36
    48.3200        48
    48.3400        48
    48.3600        36
    48.3800        48
    48.4000        38
    48.4200        54
    48.4400        40
    48.4600        44
    48.4800        32
    48.5000        38
    48.5200        52
    48.5400        42
    48.5600        40
    48.5800        48
    48.6000        56
    48.6200        48
    48.6400        24
    48.6600        38
    48.6800        52
    48.7000        40
    48.7200        30
    48.7400        34
    48.7600        34
    48.7800        44
    48.8000        28
    48.8200        50
    48.8400        32
    48.8600        48
    48.8800        44
    48.9000        36
    48.9200        38
    48.9400        44
    48.9600        46
    48.9800        34
    49.0000        40
    49.0200        50
    49.0400        50
    49.0600        54
    49.0800        36
    49.1000        52
    49.1200        54
    49.1400        56
    49.1600        54
    49.1800        42
    49.2000        54
    49.2200        64
    49.2400        60
    49.2600        38
    49.2800        48
    49.3000        42
    49.3200        42
    49.3400        44
    49.3600        44
    49.3800        56
    49.4000        44
    49.4200        46
    49.4400        44
    49.4600        46
    49.4800        44
    49.5000        52
    49.5200        42
    49.5400        36
    49.5600        36
    49.5800        42
    49.6000        38
    49.6200        44
    49.6400        44
    49.6600        38
    49.6800        40
    49.7000        38
    49.7200        54
    49.7400        58
    49.7600        54
    49.7800        34
    49.8000        46
    49.8200        34
    49.8400        42
    49.8600        52
    49.8800        32
    49.9000        40
    49.9200        46
    49.9400        52
    49.9600        46
    49.9800        46
    50.0000        38
    50.0200        44
    50.0400        36
    50.0600        50
    50.0800        46
    50.1000        72
    50.1200        40
    50.1400        30
    50.1600        36
    50.1800        48
    50.2000        38
    50.2200        48
    50.2400        44
    50.2600        32
    50.2800        44
    50.3000        38
    50.3200        32
    50.3400        36
    50.3600        34
    50.3800        34
    50.4000        42
    50.4200        42
    50.4400        46
    50.4600        30
    50.4800        46
    50.5000        28
    50.5200        36
    50.5400        30
    50.5600        44
    50.5800        48
    50.6000        32
    50.6200        36
    50.6400        36
    50.6600        44
    50.6800        32
    50.7000        36
    50.7200        38
    50.7400        32
    50.7600        44
    50.7800        38
    50.8000        36
    50.8200        42
    50.8400        42
    50.8600        42
    50.8800        50
    50.9000        40
    50.9200        46
    50.9400        44
    50.9600        44
    50.9800        42
    51.0000        40
    51.0200        42
    51.0400        50
    51.0600        52
    51.0800        34
    51.1000        34
    51.1200        38
    51.1400        32
    51.1600        32
    51.1800        50
    51.2000        58
    51.2200        38
    51.2400        52
    51.2600        52
    51.2800        48
    51.3000        52
    51.3200        44
    51.3400        54
    51.3600        54
    51.3800        34
    51.4000        48
    51.4200        32
    51.4400        40
    51.4600        52
    51.4800        36
    51.5000        46
    51.5200        44
    51.5400        46
    51.5600        54
    51.5800        44
    51.6000        48
    51.6200        46
    51.6400        44
    51.6600        60
    51.6800        52
    51.7000        42
    51.7200        46
    51.7400        50
    51.7600        60
    51.7800        52
    51.8000        40
    51.8200        70
    51.8400        96
    51.8600       104
    51.8800        78
    51.9000       102
    51.9200       106
    51.9400       120
    51.9600       120
    51.9800       190
    52.0000       182
    52.0200       236
    52.0400       276
    52.0600       288
    52.0800       402
    52.1000       464
    52.1200       494
    52.1400       522
    52.1600       476
    52.1800       468
    52.2000       380
    52.2200       366
    52.2400       316
    52.2600       318
    52.2800       294
    52.3000       276
    52.3200       224
    52.3400       190
    52.3600       154
    52.3800       116
    52.4000       110
    52.4200        92
    52.4400        82
    52.4600        66
    52.4800        60
    52.5000        56
    52.5200        44
    52.5400        42
    52.5600        50
    52.5800        46
    52.6000        46
    52.6200        44
    52.6400        46
    52.6600        42
    52.6800        50
    52.7000        36
    52.7200        44
    52.7400        58
    52.7600        38
    52.7800        44
    52.8000        28
    52.8200        44
    52.8400        48
    52.8600        40
    52.8800        42
    52.9000        40
    52.9200        40
    52.9400        50
    52.9600        42
    52.9800        52
    53.0000        42
    53.0200        56
    53.0400        48
    53.0600        40
    53.0800        64
    53.1000        44
    53.1200        42
    53.1400        34
    53.1600        32
    53.1800        40
    53.2000        36
    53.2200        28
    53.2400        40
    53.2600        48
    53.2800        38
    53.3000        34
    53.3200        30
    53.3400        36
    53.3600        38
    53.3800        34
    53.4000        40
    53.4200        32
    53.4400        30
    53.4600        34
    53.4800        38
    53.5000        34
    53.5200        32
    53.5400        44
    53.5600        42
    53.5800        48
    53.6000        42
    53.6200        38
    53.6400        36
    53.6600        30
    53.6800        50
    53.7000        50
    53.7200        34
    53.7400        44
    53.7600        60
    53.7800        50
    53.8000        44
    53.8200        36
    53.8400        40
    53.8600        42
    53.8800        46
    53.9000        32
    53.9200        36
    53.9400        50
    53.9600        42
    53.9800        36
    54.0000        30
    54.0200        40
    54.0400        38
    54.0600        32
    54.0800        40
    54.1000        40
    54.1200        30
    54.1400        44
    54.1600        32
    54.1800        50
    54.2000        38
    54.2200        30
    54.2400        44
    54.2600        44
    54.2800        34
    54.3000        46
    54.3200        44
    54.3400        52
    54.3600        50
    54.3800        40
    54.4000        48
    54.4200        46
    54.4400        58
    54.4600        42
    54.4800        54
    54.5000        48
    54.5200        52
    54.5400        50
    54.5600        64
    54.5800        62
    54.6000        62
    54.6200        64
    54.6400        58
    54.6600        40
    54.6800        54
    54.7000        52
    54.7200        58
    54.7400        52
    54.7600        48
    54.7800        44
    54.8000        36
    54.8200        56
    54.8400        54
    54.8600        50
    54.8800        46
    54.9000        44
    54.9200        50
    54.9400        54
    54.9600        30
    54.9800        40
    55.0000        42
    55.0200        50
    55.0400        54
    55.0600        48
    55.0800        56
    55.1000        40
    55.1200        46
    55.1400        46
    55.1600        46
    55.1800        50
    55.2000        68
    55.2200        52
    55.2400        62
    55.2600        44
    55.2800        62
    55.3000        46
    55.3200        56
    55.3400        60
    55.3600        54
    55.3800        62
    55.4000        72
    55.4200        62
    55.4400        72
    55.4600        92
    55.4800        88
    55.5000        84
    55.5200       100
    55.5400        96
    55.5600        98
    55.5800        86
    55.6000        86
    55.6200        76
    55.6400        86
    55.6600        84
    55.6800        72
    55.7000        74
    55.7200        68
    55.7400        74
    55.7600        52
    55.7800        48
    55.8000        54
    55.8200        48
    55.8400        44
    55.8600        42
    55.8800        48
    55.9000        32
    55.9200        42
    55.9400        44
    55.9600        32
    55.9800        40
    56.0000        40
    56.0200        44
    56.0400        30
    56.0600        42
    56.0800        44
    56.1000        30
    56.1200        44
    56.1400        36
    56.1600        48
    56.1800        44
    56.2000        44
    56.2200        60
    56.2400        48
    56.2600        64
    56.2800        82
    56.3000        82
    56.3200        86
    56.3400        88
    56.3600        70
    56.3800        68
    56.4000        52
    56.4200        46
    56.4400        50
    56.4600        76
    56.4800        76
    56.5000        68
    56.5200        54
    56.5400        66
    56.5600        46
    56.5800        48
    56.6000        46
    56.6200        54
    56.6400        38
    56.6600        32
    56.6800        46
    56.7000        36
    56.7200        34
    56.7400        50
    56.7600        36
    56.7800        38
    56.8000        50
    56.8200        32
    56.8400        42
    56.8600        32
    56.8800        30
    56.9000        40
    56.9200        42
    56.9400        34
    56.9600        42
    56.9800        34
    57.0000        34
    57.0200        52
    57.0400        44
    57.0600        38
    57.0800        40
    57.1000        30
    57.1200        42
    57.1400        40
    57.1600        32
    57.1800        28
    57.2000        42
    57.2200        28
    57.2400        40
    57.2600        32
    57.2800        34
    57.3000        38
    57.3200        40
    57.3400        32
    57.3600        44
    57.3800        34
    57.4000        32
    57.4200        34
    57.4400        50
    57.4600        60
    57.4800        38
    57.5000        34
    57.5200        42
    57.5400        48
    57.5600        42
    57.5800        40
    57.6000        50
    57.6200        40
    57.6400        40
    57.6600        42
    57.6800        36
    57.7000        48
    57.7200        48
    57.7400        28
    57.7600        36
    57.7800        50
    57.8000        26
    57.8200        48
    57.8400        46
    57.8600        40
    57.8800        26
    57.9000        36
    57.9200        34
    57.9400        36
    57.9600        32
    57.9800        44
    58.0000        42
    58.0200        30
    58.0400        32
    58.0600        42
    58.0800        44
    58.1000        40
    58.1200        36
    58.1400        24
    58.1600        42
    58.1800        40
    58.2000        32
    58.2200        44
    58.2400        42
    58.2600        50
    58.2800        28
    58.3000        48
    58.3200        32
    58.3400        46
    58.3600        34
    58.3800        46
    58.4000        40
    58.4200        40
    58.4400        40
    58.4600        40
    58.4800        44
    58.5000        40
    58.5200        54
    58.5400        44
    58.5600        58
    58.5800        58
    58.6000        70
    58.6200        70
    58.6400        68
    58.6600        70
    58.6800        70
    58.7000        80
    58.7200        68
    58.7400        62
    58.7600        66
    58.7800        76
    58.8000        78
    58.8200        86
    58.8400        84
    58.8600        84
    58.8800        80
    58.9000        84
    58.9200        80
    58.9400        58
    58.9600        50
    58.9800        68
    59.0000        52
    59.0200        46
    59.0400        52
    59.0600        36
    59.0800        46
    59.1000        58
    59.1200        52
    59.1400        44
    59.1600        38
    59.1800        32
    59.2000        38
    59.2200        36
    59.2400        56
    59.2600        44
    59.2800        42
    59.3000        40
    59.3200        34
    59.3400        34
    59.3600        38
    59.3800        38
    59.4000        30
    59.4200        40
    59.4400        36
    59.4600        42
    59.4800        36
    59.5000        34
    59.5200        40
    59.5400        36
    59.5600        38
    59.5800        40
    59.6000        52
    59.6200        34
    59.6400        40
    59.6600        48
    59.6800        30
    59.7000        44
    59.7200        48
    59.7400        36
    59.7600        34
    59.7800        52
    59.8000        42
    59.8200        46
    59.8400        52
    59.8600        36
    59.8800        38
    59.9000        60
    59.9200        50
    59.9400        50
    59.9600        30
    59.9800        46
    60.0000        42
    60.0200        44
    60.0400        42
    60.0600        38
    60.0800        46
    60.1000        50
    60.1200        42
    60.1400        36
    60.1600        54
    60.1800        44
    60.2000        32
    60.2200        42
    60.2400        30
    60.2600        40
    60.2800        34
    60.3000        44
    60.3200        36
    60.3400        40
    60.3600        36
    60.3800        34
    60.4000        50
    60.4200        54
    60.4400        32
    60.4600        42
    60.4800        42
    60.5000        44
    60.5200        30
    60.5400        38
    60.5600        52
    60.5800        44
    60.6000        34
    60.6200        28
    60.6400        48
    60.6600        38
    60.6800        42
    60.7000        38
    60.7200        46
    60.7400        42
    60.7600        50
    60.7800        34
    60.8000        40
    60.8200        64
    60.8400        54
    60.8600        44
    60.8800        58
    60.9000        54
    60.9200        40
    60.9400        44
    60.9600        42
    60.9800        52
    61.0000        60
    61.0200        66
    61.0400        56
    61.0600        54
    61.0800        72
    61.1000        74
    61.1200        82
    61.1400        94
    61.1600       102
    61.1800       106
    61.2000       120
    61.2200       108
    61.2400       108
    61.2600       120
    61.2800       100
    61.3000        90
    61.3200       100
    61.3400       104
    61.3600        98
    61.3800        92
    61.4000        98
    61.4200        92
    61.4400       100
    61.4600        96
    61.4800        98
    61.5000       122
    61.5200       100
    61.5400       122
    61.5600       124
    61.5800       108
    61.6000       112
    61.6200       172
    61.6400       166
    61.6600       166
    61.6800       186
    61.7000       220
    61.7200       230
    61.7400       286
    61.7600       284
    61.7800       298
    61.8000       292
    61.8200       358
    61.8400       330
    61.8600       372
    61.8800       374
    61.9000       392
    61.9200       396
    61.9400       376
    61.9600       374
    61.9800       392
    62.0000       332
    62.0200       352
    62.0400       292
    62.0600       268
    62.0800       248
    62.1000       248
    62.1200       232
    62.1400       180
    62.1600       186
    62.1800       148
    62.2000       126
    62.2200       124
    62.2400       104
    62.2600       110
    62.2800        96
    62.3000        86
    62.3200        80
    62.3400        82
    62.3600        66
    62.3800        70
    62.4000        68
    62.4200        56
    62.4400        46
    62.4600        54
    62.4800        48
    62.5000        38
    62.5200        46
    62.5400        44
    62.5600        48
    62.5800        46
    62.6000        40
    62.6200        50
    62.6400        42
    62.6600        54
    62.6800        42
    62.7000        38
    62.7200        40
    62.7400        46
    62.7600        34
    62.7800        48
    62.8000        40
    62.8200        50
    62.8400        46
    62.8600        46
    62.8800        30
    62.9000        48
    62.9200        34
    62.9400        46
    62.9600        46
    62.9800        44
    63.0000        36
    63.0200        32
    63.0400        42
    63.0600        40
    63.0800        40
    63.1000        46
    63.1200        24
    63.1400        52
    63.1600        32
    63.1800        60
    63.2000        32
    63.2200        36
    63.2400        44
    63.2600        36
    63.2800        36
    63.3000        34
    63.3200        42
    63.3400        36
    63.3600        38
    63.3800        32
    63.4000        36
    63.4200        36
    63.4400        36
    63.4600        28
    63.4800        34
    63.5000        26
    63.5200        44
    63.5400        28
    63.5600        38
    63.5800        36
    63.6000        40
    63.6200        44
    63.6400        52
    63.6600        46
    63.6800        44
    63.7000        36
    63.7200        38
    63.7400        36
    63.7600        36
    63.7800        28
    63.8000        46
    63.8200        28
    63.8400        34
    63.8600        34
    63.8800        32
    63.9000        44
    63.9200        42
    63.9400        42
    63.9600        50
    63.9800        44
    64.0000        38
    64.0200        50
    64.0400        38
    64.0600        42
    64.0800        36
    64.1000        42
    64.1200        46
    64.1400        40
    64.1600        30
    64.1800        34
    64.2000        40
    64.2200        32
    64.2400        34
    64.2600        54
    64.2800        34
    64.3000        32
    64.3200        38
    64.3400        42
    64.3600        42
    64.3800        30
    64.4000        26
    64.4200        46
    64.4400        42
    64.4600        34
    64.4800        26
    64.5000        40
    64.5200        40
    64.5400        34
    64.5600        34
    64.5800        32
    64.6000        44
    64.6200        48
    64.6400        40
    64.6600        38
    64.6800        44
    64.7000        42
    64.7200        38
    64.7400        30
    64.7600        30
    64.7800        38
    64.8000        30
    64.8200        48
    64.8400        52
    64.8600        46
    64.8800        46
    64.9000        42
    64.9200        38
    64.9400        50
    64.9600        44
    64.9800        48
    65.0000        68
