/////////////////////////////////////////////////////////////////////////////////
/// Profile Data Ascii Dump (XRD)                                             ///
/////////////////////////////////////////////////////////////////////////////////

  Group     : Swayze
  Data      : LeePlumlee
  File Name : LeePlumlee.RAW

# Profile Datafile
          comment             = 112 HI ash 
          date & time         = 08-04-09 08:53:11 

# Measurement Condition
    X-ray tube
          target              = Cu 
          voltage             = 40.0 (kV)
          current             = 30.0 (mA)
    Slits
          divergence slit     = 2.00000 (deg) 
          scatter slit        = 2.00000 (deg) 
          receiving slit      = 0.15000 (mm)  
    Scanning
          drive axis          = Theta-2Theta 
          scan range          =    4.000 -   65.000 
          scan mode           = Continuous Scan 
          scan speed          =   2.0000 (deg/min) 
          sampling pitch      =   0.0200 (deg) 
          preset time         =   0.60 (sec) 

# Data      [ Total No. = 3051 ]
  <2Theta>   <   I   >
     4.0000       232
     4.0200       164
     4.0400       200
     4.0600       200
     4.0800       202
     4.1000       232
     4.1200       196
     4.1400       184
     4.1600       188
     4.1800       202
     4.2000       186
     4.2200       194
     4.2400       196
     4.2600       210
     4.2800       206
     4.3000       192
     4.3200       178
     4.3400       184
     4.3600       168
     4.3800       186
     4.4000       202
     4.4200       164
     4.4400       180
     4.4600       190
     4.4800       186
     4.5000       180
     4.5200       184
     4.5400       186
     4.5600       172
     4.5800       192
     4.6000       202
     4.6200       184
     4.6400       176
     4.6600       180
     4.6800       168
     4.7000       190
     4.7200       170
     4.7400       192
     4.7600       168
     4.7800       198
     4.8000       180
     4.8200       164
     4.8400       168
     4.8600       144
     4.8800       160
     4.9000       174
     4.9200       164
     4.9400       194
     4.9600       192
     4.9800       174
     5.0000       180
     5.0200       168
     5.0400       132
     5.0600       182
     5.0800       194
     5.1000       188
     5.1200       186
     5.1400       172
     5.1600       180
     5.1800       204
     5.2000       162
     5.2200       180
     5.2400       178
     5.2600       154
     5.2800       164
     5.3000       170
     5.3200       188
     5.3400       154
     5.3600       160
     5.3800       176
     5.4000       184
     5.4200       148
     5.4400       206
     5.4600       184
     5.4800       194
     5.5000       184
     5.5200       168
     5.5400       184
     5.5600       172
     5.5800       180
     5.6000       156
     5.6200       180
     5.6400       178
     5.6600       176
     5.6800       170
     5.7000       162
     5.7200       140
     5.7400       158
     5.7600       148
     5.7800       166
     5.8000       186
     5.8200       170
     5.8400       150
     5.8600       150
     5.8800       178
     5.9000       152
     5.9200       156
     5.9400       154
     5.9600       158
     5.9800       142
     6.0000       156
     6.0200       170
     6.0400       178
     6.0600       164
     6.0800       188
     6.1000       160
     6.1200       164
     6.1400       158
     6.1600       152
     6.1800       138
     6.2000       164
     6.2200       178
     6.2400       168
     6.2600       176
     6.2800       166
     6.3000       152
     6.3200       126
     6.3400       158
     6.3600       140
     6.3800       148
     6.4000       156
     6.4200       138
     6.4400       122
     6.4600       146
     6.4800       146
     6.5000       154
     6.5200       154
     6.5400       136
     6.5600       156
     6.5800       138
     6.6000       150
     6.6200       138
     6.6400       144
     6.6600       134
     6.6800       148
     6.7000       142
     6.7200       124
     6.7400       120
     6.7600       144
     6.7800       156
     6.8000       144
     6.8200       122
     6.8400       136
     6.8600       134
     6.8800       152
     6.9000       154
     6.9200       132
     6.9400       136
     6.9600       140
     6.9800       132
     7.0000       124
     7.0200       122
     7.0400       120
     7.0600       128
     7.0800       128
     7.1000       130
     7.1200       140
     7.1400       138
     7.1600       134
     7.1800       124
     7.2000       122
     7.2200       140
     7.2400       138
     7.2600       124
     7.2800       140
     7.3000       134
     7.3200       122
     7.3400       134
     7.3600       136
     7.3800       156
     7.4000       114
     7.4200       126
     7.4400       142
     7.4600       118
     7.4800       118
     7.5000       126
     7.5200       126
     7.5400       120
     7.5600       146
     7.5800       140
     7.6000       130
     7.6200       138
     7.6400       122
     7.6600       116
     7.6800       114
     7.7000       118
     7.7200       136
     7.7400       104
     7.7600       140
     7.7800       130
     7.8000       140
     7.8200       146
     7.8400       120
     7.8600       142
     7.8800       118
     7.9000        94
     7.9200       122
     7.9400       120
     7.9600       120
     7.9800       140
     8.0000       130
     8.0200       130
     8.0400       122
     8.0600       124
     8.0800       142
     8.1000       118
     8.1200       114
     8.1400       126
     8.1600       136
     8.1800       124
     8.2000       116
     8.2200       118
     8.2400       132
     8.2600       146
     8.2800       126
     8.3000       130
     8.3200       136
     8.3400       136
     8.3600       124
     8.3800       108
     8.4000       120
     8.4200       120
     8.4400       140
     8.4600       136
     8.4800       124
     8.5000       118
     8.5200       132
     8.5400       108
     8.5600       128
     8.5800       132
     8.6000       142
     8.6200       138
     8.6400       130
     8.6600       120
     8.6800       112
     8.7000       144
     8.7200       120
     8.7400       140
     8.7600       124
     8.7800       130
     8.8000       120
     8.8200       158
     8.8400       116
     8.8600       112
     8.8800       130
     8.9000       112
     8.9200       128
     8.9400       104
     8.9600       102
     8.9800       104
     9.0000       138
     9.0200       116
     9.0400       118
     9.0600       118
     9.0800       142
     9.1000       128
     9.1200       126
     9.1400       126
     9.1600       118
     9.1800       138
     9.2000       110
     9.2200       132
     9.2400       116
     9.2600       128
     9.2800       130
     9.3000       118
     9.3200       126
     9.3400       114
     9.3600       110
     9.3800       112
     9.4000       120
     9.4200        96
     9.4400       122
     9.4600       122
     9.4800       128
     9.5000       130
     9.5200       128
     9.5400       106
     9.5600       136
     9.5800       144
     9.6000       122
     9.6200       118
     9.6400       126
     9.6600       136
     9.6800        94
     9.7000       114
     9.7200       134
     9.7400       132
     9.7600       134
     9.7800       100
     9.8000       122
     9.8200       100
     9.8400       106
     9.8600       134
     9.8800        98
     9.9000       106
     9.9200       130
     9.9400       122
     9.9600       122
     9.9800       134
    10.0000       118
    10.0200       130
    10.0400       132
    10.0600       112
    10.0800       106
    10.1000       112
    10.1200       128
    10.1400       100
    10.1600       118
    10.1800       114
    10.2000       138
    10.2200       102
    10.2400       128
    10.2600       124
    10.2800       122
    10.3000        98
    10.3200       102
    10.3400       122
    10.3600       108
    10.3800       124
    10.4000       106
    10.4200       106
    10.4400       118
    10.4600       106
    10.4800       124
    10.5000       118
    10.5200       126
    10.5400       116
    10.5600        90
    10.5800       106
    10.6000       112
    10.6200        94
    10.6400       112
    10.6600       114
    10.6800       102
    10.7000       100
    10.7200       118
    10.7400       110
    10.7600       110
    10.7800       110
    10.8000       112
    10.8200       108
    10.8400        88
    10.8600       102
    10.8800       116
    10.9000       102
    10.9200       110
    10.9400       120
    10.9600       104
    10.9800        88
    11.0000        90
    11.0200       102
    11.0400       124
    11.0600       110
    11.0800       108
    11.1000       112
    11.1200        86
    11.1400       110
    11.1600       104
    11.1800       124
    11.2000       106
    11.2200       118
    11.2400       116
    11.2600       106
    11.2800       126
    11.3000       100
    11.3200       112
    11.3400       106
    11.3600       120
    11.3800       114
    11.4000       140
    11.4200       126
    11.4400       124
    11.4600       140
    11.4800       132
    11.5000       142
    11.5200       188
    11.5400       150
    11.5600       170
    11.5800       174
    11.6000       124
    11.6200       148
    11.6400       112
    11.6600        94
    11.6800        84
    11.7000       126
    11.7200        86
    11.7400        94
    11.7600       112
    11.7800        82
    11.8000       118
    11.8200       100
    11.8400        78
    11.8600       102
    11.8800        80
    11.9000        94
    11.9200       100
    11.9400        76
    11.9600        96
    11.9800        80
    12.0000       114
    12.0200        90
    12.0400       112
    12.0600       110
    12.0800        88
    12.1000        84
    12.1200       114
    12.1400        86
    12.1600       108
    12.1800        80
    12.2000        86
    12.2200       108
    12.2400        92
    12.2600       110
    12.2800        82
    12.3000       110
    12.3200        96
    12.3400       102
    12.3600        94
    12.3800        98
    12.4000        92
    12.4200        66
    12.4400        80
    12.4600       100
    12.4800        90
    12.5000        94
    12.5200        92
    12.5400        98
    12.5600        98
    12.5800        96
    12.6000        82
    12.6200       100
    12.6400        92
    12.6600        96
    12.6800       106
    12.7000        86
    12.7200        94
    12.7400        88
    12.7600        88
    12.7800        90
    12.8000        92
    12.8200        88
    12.8400        74
    12.8600        92
    12.8800        94
    12.9000        98
    12.9200        82
    12.9400        92
    12.9600        84
    12.9800       106
    13.0000        88
    13.0200        82
    13.0400        90
    13.0600        96
    13.0800        90
    13.1000        86
    13.1200        82
    13.1400        86
    13.1600        80
    13.1800        74
    13.2000        78
    13.2200       102
    13.2400        98
    13.2600        94
    13.2800       106
    13.3000        78
    13.3200        90
    13.3400        92
    13.3600        86
    13.3800       106
    13.4000        90
    13.4200        76
    13.4400       104
    13.4600        64
    13.4800       102
    13.5000        80
    13.5200       116
    13.5400        82
    13.5600        82
    13.5800       100
    13.6000       104
    13.6200        94
    13.6400        80
    13.6600       108
    13.6800        86
    13.7000        86
    13.7200       102
    13.7400        86
    13.7600        94
    13.7800        92
    13.8000       100
    13.8200        62
    13.8400        92
    13.8600        82
    13.8800        84
    13.9000        90
    13.9200        80
    13.9400        96
    13.9600        84
    13.9800        88
    14.0000        74
    14.0200        98
    14.0400        86
    14.0600        94
    14.0800        94
    14.1000        72
    14.1200        82
    14.1400        90
    14.1600        64
    14.1800        88
    14.2000        88
    14.2200        84
    14.2400        80
    14.2600       102
    14.2800        74
    14.3000        88
    14.3200       102
    14.3400        82
    14.3600        90
    14.3800       118
    14.4000       108
    14.4200       102
    14.4400        96
    14.4600        86
    14.4800        88
    14.5000        96
    14.5200        86
    14.5400        92
    14.5600       106
    14.5800        82
    14.6000        78
    14.6200       100
    14.6400        92
    14.6600        82
    14.6800        98
    14.7000        94
    14.7200        82
    14.7400        82
    14.7600        94
    14.7800        86
    14.8000        70
    14.8200        92
    14.8400        94
    14.8600        82
    14.8800        80
    14.9000        96
    14.9200        76
    14.9400        92
    14.9600        90
    14.9800        78
    15.0000        88
    15.0200        86
    15.0400        82
    15.0600        76
    15.0800        66
    15.1000        82
    15.1200        64
    15.1400        84
    15.1600        82
    15.1800        86
    15.2000       100
    15.2200        68
    15.2400       104
    15.2600        92
    15.2800       104
    15.3000        92
    15.3200        88
    15.3400        84
    15.3600        88
    15.3800        78
    15.4000        90
    15.4200        86
    15.4400        96
    15.4600       100
    15.4800        94
    15.5000        78
    15.5200        80
    15.5400        82
    15.5600        80
    15.5800        88
    15.6000        84
    15.6200        92
    15.6400        82
    15.6600        76
    15.6800        88
    15.7000       106
    15.7200        92
    15.7400        80
    15.7600        94
    15.7800        92
    15.8000        96
    15.8200        90
    15.8400        64
    15.8600        64
    15.8800        84
    15.9000        82
    15.9200        90
    15.9400       108
    15.9600        88
    15.9800        82
    16.0000        86
    16.0200        88
    16.0400        84
    16.0600        94
    16.0800        80
    16.1000        70
    16.1200        92
    16.1400        82
    16.1600        98
    16.1800       104
    16.2000        90
    16.2200        88
    16.2400        94
    16.2600       100
    16.2800        90
    16.3000        74
    16.3200        80
    16.3400        86
    16.3600        86
    16.3800        96
    16.4000        82
    16.4200        96
    16.4400        76
    16.4600        90
    16.4800       114
    16.5000        80
    16.5200       104
    16.5400       102
    16.5600        92
    16.5800       120
    16.6000        74
    16.6200       102
    16.6400        98
    16.6600        82
    16.6800       102
    16.7000        76
    16.7200       110
    16.7400        96
    16.7600        84
    16.7800        86
    16.8000        70
    16.8200        88
    16.8400        80
    16.8600        78
    16.8800        88
    16.9000        98
    16.9200        96
    16.9400        80
    16.9600        96
    16.9800       106
    17.0000        96
    17.0200        80
    17.0400        86
    17.0600        88
    17.0800        88
    17.1000       108
    17.1200        80
    17.1400        76
    17.1600        84
    17.1800        98
    17.2000       118
    17.2200        90
    17.2400       112
    17.2600       102
    17.2800        98
    17.3000        86
    17.3200       102
    17.3400        90
    17.3600        76
    17.3800       100
    17.4000        78
    17.4200        78
    17.4400       106
    17.4600        98
    17.4800       106
    17.5000        98
    17.5200       106
    17.5400        88
    17.5600        90
    17.5800        94
    17.6000        98
    17.6200        88
    17.6400       106
    17.6600       106
    17.6800       106
    17.7000        98
    17.7200       106
    17.7400       118
    17.7600        94
    17.7800       112
    17.8000       122
    17.8200        80
    17.8400       118
    17.8600        96
    17.8800        96
    17.9000        80
    17.9200        86
    17.9400       100
    17.9600       126
    17.9800       114
    18.0000       102
    18.0200       122
    18.0400       106
    18.0600        88
    18.0800       100
    18.1000       110
    18.1200       116
    18.1400        98
    18.1600       106
    18.1800       110
    18.2000       126
    18.2200       104
    18.2400        88
    18.2600       124
    18.2800       128
    18.3000        98
    18.3200       108
    18.3400       114
    18.3600       108
    18.3800        94
    18.4000        92
    18.4200       102
    18.4400       114
    18.4600       108
    18.4800       104
    18.5000       104
    18.5200       126
    18.5400       126
    18.5600       100
    18.5800       126
    18.6000       118
    18.6200       100
    18.6400       116
    18.6600       110
    18.6800       126
    18.7000        98
    18.7200       112
    18.7400       110
    18.7600       106
    18.7800       110
    18.8000       122
    18.8200       118
    18.8400        92
    18.8600       112
    18.8800       114
    18.9000       130
    18.9200       116
    18.9400       104
    18.9600       124
    18.9800       100
    19.0000       120
    19.0200       124
    19.0400       128
    19.0600       120
    19.0800       112
    19.1000       116
    19.1200       102
    19.1400       128
    19.1600       110
    19.1800        90
    19.2000       142
    19.2200       122
    19.2400       112
    19.2600       106
    19.2800       120
    19.3000       138
    19.3200       128
    19.3400       126
    19.3600       134
    19.3800       112
    19.4000       132
    19.4200       122
    19.4400       102
    19.4600       122
    19.4800       130
    19.5000       118
    19.5200       130
    19.5400       128
    19.5600       132
    19.5800       114
    19.6000       104
    19.6200       138
    19.6400       122
    19.6600       138
    19.6800       134
    19.7000       116
    19.7200       140
    19.7400       140
    19.7600       160
    19.7800       140
    19.8000       132
    19.8200       118
    19.8400       120
    19.8600       134
    19.8800       118
    19.9000       116
    19.9200       162
    19.9400       138
    19.9600       122
    19.9800       110
    20.0000       144
    20.0200       132
    20.0400       134
    20.0600       128
    20.0800       122
    20.1000       124
    20.1200       124
    20.1400       128
    20.1600       138
    20.1800       130
    20.2000       136
    20.2200       134
    20.2400       148
    20.2600       162
    20.2800       152
    20.3000       144
    20.3200       136
    20.3400       142
    20.3600       162
    20.3800       140
    20.4000       142
    20.4200       126
    20.4400       158
    20.4600       178
    20.4800       138
    20.5000       144
    20.5200       180
    20.5400       182
    20.5600       184
    20.5800       210
    20.6000       198
    20.6200       184
    20.6400       196
    20.6600       192
    20.6800       176
    20.7000       144
    20.7200       170
    20.7400       162
    20.7600       164
    20.7800       194
    20.8000       162
    20.8200       144
    20.8400       144
    20.8600       132
    20.8800       166
    20.9000       154
    20.9200       146
    20.9400       152
    20.9600       162
    20.9800       164
    21.0000       148
    21.0200       142
    21.0400       160
    21.0600       152
    21.0800       146
    21.1000       148
    21.1200       148
    21.1400       150
    21.1600       166
    21.1800       168
    21.2000       170
    21.2200       160
    21.2400       134
    21.2600       148
    21.2800       160
    21.3000       160
    21.3200       152
    21.3400       176
    21.3600       150
    21.3800       188
    21.4000       158
    21.4200       162
    21.4400       144
    21.4600       170
    21.4800       166
    21.5000       150
    21.5200       154
    21.5400       160
    21.5600       184
    21.5800       184
    21.6000       168
    21.6200       168
    21.6400       200
    21.6600       174
    21.6800       176
    21.7000       200
    21.7200       190
    21.7400       218
    21.7600       226
    21.7800       248
    21.8000       272
    21.8200       234
    21.8400       254
    21.8600       242
    21.8800       236
    21.9000       210
    21.9200       194
    21.9400       150
    21.9600       160
    21.9800       172
    22.0000       168
    22.0200       174
    22.0400       158
    22.0600       148
    22.0800       146
    22.1000       134
    22.1200       174
    22.1400       142
    22.1600       146
    22.1800       134
    22.2000       168
    22.2200       156
    22.2400       162
    22.2600       146
    22.2800       144
    22.3000       156
    22.3200       160
    22.3400       144
    22.3600       132
    22.3800       146
    22.4000       166
    22.4200       156
    22.4400       154
    22.4600       170
    22.4800       170
    22.5000       154
    22.5200       178
    22.5400       144
    22.5600       156
    22.5800       162
    22.6000       150
    22.6200       158
    22.6400       154
    22.6600       150
    22.6800       176
    22.7000       186
    22.7200       166
    22.7400       176
    22.7600       172
    22.7800       174
    22.8000       198
    22.8200       196
    22.8400       188
    22.8600       182
    22.8800       188
    22.9000       168
    22.9200       166
    22.9400       160
    22.9600       172
    22.9800       160
    23.0000       160
    23.0200       150
    23.0400       144
    23.0600       164
    23.0800       188
    23.1000       168
    23.1200       140
    23.1400       172
    23.1600       180
    23.1800       156
    23.2000       164
    23.2200       166
    23.2400       180
    23.2600       168
    23.2800       152
    23.3000       192
    23.3200       168
    23.3400       168
    23.3600       164
    23.3800       150
    23.4000       176
    23.4200       144
    23.4400       188
    23.4600       166
    23.4800       158
    23.5000       156
    23.5200       146
    23.5400       156
    23.5600       166
    23.5800       152
    23.6000       162
    23.6200       164
    23.6400       164
    23.6600       156
    23.6800       118
    23.7000       162
    23.7200       154
    23.7400       152
    23.7600       146
    23.7800       134
    23.8000       134
    23.8200       156
    23.8400       168
    23.8600       134
    23.8800       136
    23.9000       144
    23.9200       140
    23.9400       158
    23.9600       152
    23.9800       138
    24.0000       148
    24.0200       160
    24.0400       148
    24.0600       150
    24.0800       150
    24.1000       130
    24.1200       148
    24.1400       132
    24.1600       142
    24.1800       138
    24.2000       144
    24.2200       154
    24.2400       178
    24.2600       168
    24.2800       166
    24.3000       180
    24.3200       156
    24.3400       160
    24.3600       170
    24.3800       148
    24.4000       150
    24.4200       156
    24.4400       172
    24.4600       152
    24.4800       150
    24.5000       144
    24.5200       158
    24.5400       154
    24.5600       164
    24.5800       132
    24.6000       170
    24.6200       164
    24.6400       162
    24.6600       170
    24.6800       166
    24.7000       162
    24.7200       174
    24.7400       148
    24.7600       166
    24.7800       174
    24.8000       168
    24.8200       182
    24.8400       168
    24.8600       172
    24.8800       210
    24.9000       204
    24.9200       210
    24.9400       202
    24.9600       232
    24.9800       268
    25.0000       276
    25.0200       294
    25.0400       312
    25.0600       310
    25.0800       340
    25.1000       370
    25.1200       406
    25.1400       462
    25.1600       534
    25.1800       614
    25.2000       674
    25.2200       772
    25.2400       908
    25.2600      1048
    25.2800      1240
    25.3000      1368
    25.3200      1438
    25.3400      1524
    25.3600      1580
    25.3800      1416
    25.4000      1278
    25.4200      1114
    25.4400       886
    25.4600       740
    25.4800       516
    25.5000       418
    25.5200       342
    25.5400       330
    25.5600       286
    25.5800       236
    25.6000       228
    25.6200       232
    25.6400       212
    25.6600       206
    25.6800       172
    25.7000       156
    25.7200       186
    25.7400       170
    25.7600       158
    25.7800       166
    25.8000       166
    25.8200       174
    25.8400       154
    25.8600       138
    25.8800       168
    25.9000       148
    25.9200       148
    25.9400       136
    25.9600       166
    25.9800       128
    26.0000       162
    26.0200       158
    26.0400       138
    26.0600       120
    26.0800       108
    26.1000       140
    26.1200       126
    26.1400       158
    26.1600       110
    26.1800       132
    26.2000       122
    26.2200       126
    26.2400       116
    26.2600       112
    26.2800       132
    26.3000       120
    26.3200       130
    26.3400       150
    26.3600       114
    26.3800       140
    26.4000       126
    26.4200       120
    26.4400       132
    26.4600       132
    26.4800       134
    26.5000       110
    26.5200       126
    26.5400       128
    26.5600        96
    26.5800       122
    26.6000       120
    26.6200       126
    26.6400       142
    26.6600       128
    26.6800       144
    26.7000       100
    26.7200        96
    26.7400        90
    26.7600       120
    26.7800       122
    26.8000       114
    26.8200       130
    26.8400       120
    26.8600       118
    26.8800       114
    26.9000       110
    26.9200       100
    26.9400       112
    26.9600       106
    26.9800       114
    27.0000        90
    27.0200        98
    27.0400       128
    27.0600       104
    27.0800       102
    27.1000       124
    27.1200        94
    27.1400       112
    27.1600       116
    27.1800       100
    27.2000       114
    27.2200       112
    27.2400       122
    27.2600       114
    27.2800       116
    27.3000       126
    27.3200       126
    27.3400       114
    27.3600       120
    27.3800       118
    27.4000       132
    27.4200       116
    27.4400       124
    27.4600       134
    27.4800       138
    27.5000       146
    27.5200       158
    27.5400       126
    27.5600       134
    27.5800       160
    27.6000       152
    27.6200       158
    27.6400       166
    27.6600       164
    27.6800       176
    27.7000       156
    27.7200       152
    27.7400       134
    27.7600       148
    27.7800       150
    27.8000       128
    27.8200       130
    27.8400       134
    27.8600       134
    27.8800       124
    27.9000       132
    27.9200       158
    27.9400       156
    27.9600       122
    27.9800       130
    28.0000       116
    28.0200       134
    28.0400       114
    28.0600       124
    28.0800       108
    28.1000       102
    28.1200        88
    28.1400       114
    28.1600       106
    28.1800       112
    28.2000       112
    28.2200       128
    28.2400        96
    28.2600       122
    28.2800       102
    28.3000       122
    28.3200       124
    28.3400       122
    28.3600       110
    28.3800       106
    28.4000        98
    28.4200       122
    28.4400       118
    28.4600       108
    28.4800       110
    28.5000       112
    28.5200        98
    28.5400       108
    28.5600       108
    28.5800        94
    28.6000       106
    28.6200        92
    28.6400        96
    28.6600       100
    28.6800       118
    28.7000        94
    28.7200        94
    28.7400        86
    28.7600       102
    28.7800       114
    28.8000       108
    28.8200       120
    28.8400        86
    28.8600       138
    28.8800       124
    28.9000       130
    28.9200       144
    28.9400       132
    28.9600       120
    28.9800       112
    29.0000       162
    29.0200       146
    29.0400       142
    29.0600       142
    29.0800       132
    29.1000       138
    29.1200       142
    29.1400       120
    29.1600       112
    29.1800       114
    29.2000        94
    29.2200       118
    29.2400        94
    29.2600        98
    29.2800        82
    29.3000        98
    29.3200        80
    29.3400        84
    29.3600       118
    29.3800       100
    29.4000       130
    29.4200       122
    29.4400       114
    29.4600       104
    29.4800       126
    29.5000       116
    29.5200       110
    29.5400       126
    29.5600       144
    29.5800       130
    29.6000       138
    29.6200       136
    29.6400       148
    29.6600       130
    29.6800       124
    29.7000       140
    29.7200       118
    29.7400       138
    29.7600       106
    29.7800       124
    29.8000       106
    29.8200       100
    29.8400        96
    29.8600       116
    29.8800       120
    29.9000       118
    29.9200       112
    29.9400       114
    29.9600       104
    29.9800        88
    30.0000        92
    30.0200       108
    30.0400        98
    30.0600       100
    30.0800        88
    30.1000        98
    30.1200        92
    30.1400        86
    30.1600        94
    30.1800       108
    30.2000       124
    30.2200       126
    30.2400       108
    30.2600       140
    30.2800       110
    30.3000       112
    30.3200       114
    30.3400       106
    30.3600        98
    30.3800       102
    30.4000       122
    30.4200       100
    30.4400       100
    30.4600       110
    30.4800        96
    30.5000       112
    30.5200       106
    30.5400       104
    30.5600       112
    30.5800        98
    30.6000       114
    30.6200       102
    30.6400       122
    30.6600       126
    30.6800       116
    30.7000        96
    30.7200        88
    30.7400       114
    30.7600       116
    30.7800       104
    30.8000       112
    30.8200       106
    30.8400        84
    30.8600       120
    30.8800       112
    30.9000       116
    30.9200       136
    30.9400       104
    30.9600       118
    30.9800       128
    31.0000       154
    31.0200       140
    31.0400       146
    31.0600       168
    31.0800       188
    31.1000       166
    31.1200       202
    31.1400       222
    31.1600       200
    31.1800       236
    31.2000       278
    31.2200       298
    31.2400       312
    31.2600       278
    31.2800       332
    31.3000       308
    31.3200       272
    31.3400       274
    31.3600       202
    31.3800       192
    31.4000       166
    31.4200       148
    31.4400       136
    31.4600       130
    31.4800       110
    31.5000       126
    31.5200       116
    31.5400       118
    31.5600       104
    31.5800       100
    31.6000        78
    31.6200        86
    31.6400        98
    31.6600       102
    31.6800       106
    31.7000       108
    31.7200        98
    31.7400        94
    31.7600        94
    31.7800       134
    31.8000       108
    31.8200        94
    31.8400       100
    31.8600       118
    31.8800       104
    31.9000       122
    31.9200       108
    31.9400        92
    31.9600       106
    31.9800        88
    32.0000       110
    32.0200        88
    32.0400        96
    32.0600        78
    32.0800       108
    32.1000        78
    32.1200        78
    32.1400        74
    32.1600        82
    32.1800        74
    32.2000        72
    32.2200        80
    32.2400        80
    32.2600        80
    32.2800        80
    32.3000        74
    32.3200        82
    32.3400        76
    32.3600        66
    32.3800        82
    32.4000        76
    32.4200        60
    32.4400        70
    32.4600        70
    32.4800        82
    32.5000        52
    32.5200        76
    32.5400        78
    32.5600        78
    32.5800        64
    32.6000        78
    32.6200        60
    32.6400        90
    32.6600        66
    32.6800        76
    32.7000        72
    32.7200        54
    32.7400        72
    32.7600        74
    32.7800        66
    32.8000        72
    32.8200        74
    32.8400        62
    32.8600        56
    32.8800        74
    32.9000        66
    32.9200        74
    32.9400        64
    32.9600        78
    32.9800        62
    33.0000        68
    33.0200        62
    33.0400        54
    33.0600        62
    33.0800        78
    33.1000        68
    33.1200        78
    33.1400        60
    33.1600        92
    33.1800        80
    33.2000        74
    33.2200        82
    33.2400        80
    33.2600        82
    33.2800        84
    33.3000        78
    33.3200        94
    33.3400        84
    33.3600        44
    33.3800        80
    33.4000        82
    33.4200        78
    33.4400        66
    33.4600        74
    33.4800        86
    33.5000        80
    33.5200        62
    33.5400        66
    33.5600        70
    33.5800        66
    33.6000        74
    33.6200        72
    33.6400        70
    33.6600        50
    33.6800        84
    33.7000        80
    33.7200        56
    33.7400        58
    33.7600        66
    33.7800        52
    33.8000        58
    33.8200        60
    33.8400        70
    33.8600        76
    33.8800        54
    33.9000        56
    33.9200        62
    33.9400        58
    33.9600        52
    33.9800        76
    34.0000        52
    34.0200        76
    34.0400        62
    34.0600        68
    34.0800        46
    34.1000        58
    34.1200        76
    34.1400        70
    34.1600        68
    34.1800        66
    34.2000        60
    34.2200        54
    34.2400        46
    34.2600        58
    34.2800        52
    34.3000        56
    34.3200        78
    34.3400        76
    34.3600        80
    34.3800        66
    34.4000        50
    34.4200        70
    34.4400        64
    34.4600        70
    34.4800        62
    34.5000        58
    34.5200        72
    34.5400        82
    34.5600        60
    34.5800        76
    34.6000        62
    34.6200        62
    34.6400        68
    34.6600        62
    34.6800        66
    34.7000        82
    34.7200        72
    34.7400        78
    34.7600        80
    34.7800        74
    34.8000        88
    34.8200        66
    34.8400        76
    34.8600        78
    34.8800        54
    34.9000        92
    34.9200        76
    34.9400        62
    34.9600        70
    34.9800        66
    35.0000        66
    35.0200        70
    35.0400        52
    35.0600        52
    35.0800        72
    35.1000        66
    35.1200        62
    35.1400        60
    35.1600        60
    35.1800        68
    35.2000        66
    35.2200        78
    35.2400        72
    35.2600        66
    35.2800        62
    35.3000        76
    35.3200        72
    35.3400        66
    35.3600        68
    35.3800        70
    35.4000        62
    35.4200        90
    35.4400        80
    35.4600        84
    35.4800        78
    35.5000        86
    35.5200        66
    35.5400        70
    35.5600        82
    35.5800        80
    35.6000        82
    35.6200        86
    35.6400        88
    35.6600        88
    35.6800        94
    35.7000        78
    35.7200        82
    35.7400        78
    35.7600        92
    35.7800       100
    35.8000        84
    35.8200        92
    35.8400        78
    35.8600       110
    35.8800       102
    35.9000       108
    35.9200       108
    35.9400        98
    35.9600        90
    35.9800       100
    36.0000       100
    36.0200        96
    36.0400       100
    36.0600       102
    36.0800       122
    36.1000       122
    36.1200       112
    36.1400       116
    36.1600       136
    36.1800       126
    36.2000       120
    36.2200       138
    36.2400       108
    36.2600       116
    36.2800       116
    36.3000        88
    36.3200        98
    36.3400        92
    36.3600        86
    36.3800        64
    36.4000        84
    36.4200        68
    36.4400        76
    36.4600        72
    36.4800        70
    36.5000        92
    36.5200        66
    36.5400        72
    36.5600        58
    36.5800        68
    36.6000        76
    36.6200        70
    36.6400        66
    36.6600        78
    36.6800        48
    36.7000        62
    36.7200        58
    36.7400        82
    36.7600        70
    36.7800        56
    36.8000        58
    36.8200        50
    36.8400        64
    36.8600        66
    36.8800        58
    36.9000        62
    36.9200        58
    36.9400        66
    36.9600        64
    36.9800        52
    37.0000        72
    37.0200        52
    37.0400        64
    37.0600        58
    37.0800        70
    37.1000        66
    37.1200        54
    37.1400        72
    37.1600        54
    37.1800        62
    37.2000        56
    37.2200        62
    37.2400        40
    37.2600        70
    37.2800        66
    37.3000        70
    37.3200        50
    37.3400        48
    37.3600        56
    37.3800        58
    37.4000        56
    37.4200        48
    37.4400        84
    37.4600        60
    37.4800        70
    37.5000        62
    37.5200        54
    37.5400        52
    37.5600        70
    37.5800        70
    37.6000        60
    37.6200        56
    37.6400        62
    37.6600        64
    37.6800        66
    37.7000        54
    37.7200        60
    37.7400        80
    37.7600        76
    37.7800        54
    37.8000        54
    37.8200        72
    37.8400        70
    37.8600        54
    37.8800        68
    37.9000        60
    37.9200        58
    37.9400        70
    37.9600        54
    37.9800        74
    38.0000        80
    38.0200        82
    38.0400        60
    38.0600        78
    38.0800        76
    38.1000        78
    38.1200        78
    38.1400        60
    38.1600        64
    38.1800        78
    38.2000        78
    38.2200        70
    38.2400        66
    38.2600        84
    38.2800        62
    38.3000        80
    38.3200        92
    38.3400        84
    38.3600       104
    38.3800       114
    38.4000       120
    38.4200       122
    38.4400       160
    38.4600       140
    38.4800       186
    38.5000       158
    38.5200       206
    38.5400       196
    38.5600       202
    38.5800       156
    38.6000       178
    38.6200       172
    38.6400       182
    38.6600       154
    38.6800       140
    38.7000       114
    38.7200       100
    38.7400        84
    38.7600        90
    38.7800        92
    38.8000        84
    38.8200        72
    38.8400        58
    38.8600        62
    38.8800        40
    38.9000        62
    38.9200        60
    38.9400        70
    38.9600        60
    38.9800        62
    39.0000        80
    39.0200        58
    39.0400        48
    39.0600        74
    39.0800        56
    39.1000        54
    39.1200        72
    39.1400        52
    39.1600        62
    39.1800        52
    39.2000        62
    39.2200        66
    39.2400        58
    39.2600        64
    39.2800        60
    39.3000        56
    39.3200        58
    39.3400        64
    39.3600        64
    39.3800        56
    39.4000        52
    39.4200        58
    39.4400        58
    39.4600        58
    39.4800        48
    39.5000        44
    39.5200        54
    39.5400        56
    39.5600        60
    39.5800        76
    39.6000        56
    39.6200        52
    39.6400        62
    39.6600        56
    39.6800        54
    39.7000        58
    39.7200        46
    39.7400        52
    39.7600        38
    39.7800        62
    39.8000        52
    39.8200        44
    39.8400        56
    39.8600        58
    39.8800        54
    39.9000        44
    39.9200        48
    39.9400        46
    39.9600        68
    39.9800        64
    40.0000        62
    40.0200        70
    40.0400        52
    40.0600        64
    40.0800        52
    40.1000        54
    40.1200        58
    40.1400        54
    40.1600        64
    40.1800        58
    40.2000        76
    40.2200        56
    40.2400        60
    40.2600        82
    40.2800        56
    40.3000        60
    40.3200        54
    40.3400        64
    40.3600        86
    40.3800        92
    40.4000        78
    40.4200        66
    40.4400        92
    40.4600        92
    40.4800       100
    40.5000        88
    40.5200        96
    40.5400       106
    40.5600       112
    40.5800       138
    40.6000       124
    40.6200       146
    40.6400       158
    40.6600       160
    40.6800       194
    40.7000       176
    40.7200       190
    40.7400       176
    40.7600       150
    40.7800       174
    40.8000       170
    40.8200       148
    40.8400       138
    40.8600       132
    40.8800       122
    40.9000        96
    40.9200       108
    40.9400       102
    40.9600        80
    40.9800       102
    41.0000       106
    41.0200        98
    41.0400       104
    41.0600        90
    41.0800        90
    41.1000       104
    41.1200       108
    41.1400       116
    41.1600       116
    41.1800       136
    41.2000       120
    41.2200       110
    41.2400       130
    41.2600       140
    41.2800       124
    41.3000       102
    41.3200       116
    41.3400        92
    41.3600        92
    41.3800        72
    41.4000        76
    41.4200        76
    41.4400        56
    41.4600        58
    41.4800        70
    41.5000        72
    41.5200        48
    41.5400        68
    41.5600        68
    41.5800        72
    41.6000        74
    41.6200        56
    41.6400        48
    41.6600        62
    41.6800        44
    41.7000        54
    41.7200        58
    41.7400        64
    41.7600        58
    41.7800        58
    41.8000        60
    41.8200        48
    41.8400        70
    41.8600        62
    41.8800        56
    41.9000        72
    41.9200        66
    41.9400        62
    41.9600        70
    41.9800        62
    42.0000        72
    42.0200        62
    42.0400        82
    42.0600        86
    42.0800        48
    42.1000        84
    42.1200        62
    42.1400        92
    42.1600        70
    42.1800        74
    42.2000        68
    42.2200        66
    42.2400        52
    42.2600        58
    42.2800        54
    42.3000        56
    42.3200        56
    42.3400        70
    42.3600        64
    42.3800        72
    42.4000        66
    42.4200        50
    42.4400        54
    42.4600        58
    42.4800        66
    42.5000        64
    42.5200        48
    42.5400        62
    42.5600        52
    42.5800        64
    42.6000        52
    42.6200        62
    42.6400        76
    42.6600        56
    42.6800        66
    42.7000        60
    42.7200        50
    42.7400        50
    42.7600        52
    42.7800        46
    42.8000        70
    42.8200        56
    42.8400        46
    42.8600        62
    42.8800        80
    42.9000        66
    42.9200        76
    42.9400        56
    42.9600        54
    42.9800        62
    43.0000        60
    43.0200        82
    43.0400        62
    43.0600        76
    43.0800        86
    43.1000        78
    43.1200        82
    43.1400       106
    43.1600        78
    43.1800        96
    43.2000        96
    43.2200       110
    43.2400       102
    43.2600       116
    43.2800       136
    43.3000       104
    43.3200        94
    43.3400        92
    43.3600        94
    43.3800        70
    43.4000        74
    43.4200        78
    43.4400        68
    43.4600        58
    43.4800        66
    43.5000        68
    43.5200        66
    43.5400        70
    43.5600        66
    43.5800        50
    43.6000        78
    43.6200        76
    43.6400        72
    43.6600        64
    43.6800        54
    43.7000        58
    43.7200        60
    43.7400        68
    43.7600        48
    43.7800        68
    43.8000        54
    43.8200        62
    43.8400        52
    43.8600        46
    43.8800        50
    43.9000        52
    43.9200        36
    43.9400        54
    43.9600        56
    43.9800        58
    44.0000        56
    44.0200        46
    44.0400        56
    44.0600        50
    44.0800        44
    44.1000        52
    44.1200        52
    44.1400        54
    44.1600        56
    44.1800        62
    44.2000        54
    44.2200        60
    44.2400        64
    44.2600        72
    44.2800        56
    44.3000        64
    44.3200        66
    44.3400        60
    44.3600        40
    44.3800        46
    44.4000        62
    44.4200        46
    44.4400        54
    44.4600        58
    44.4800        50
    44.5000        46
    44.5200        56
    44.5400        56
    44.5600        56
    44.5800        64
    44.6000        48
    44.6200        72
    44.6400        62
    44.6600        56
    44.6800        60
    44.7000        42
    44.7200        48
    44.7400        38
    44.7600        64
    44.7800        64
    44.8000        52
    44.8200        44
    44.8400        58
    44.8600        64
    44.8800        54
    44.9000        52
    44.9200        60
    44.9400        48
    44.9600        54
    44.9800        54
    45.0000        50
    45.0200        48
    45.0400        70
    45.0600        48
    45.0800        54
    45.1000        50
    45.1200        56
    45.1400        52
    45.1600        64
    45.1800        52
    45.2000        56
    45.2200        68
    45.2400        60
    45.2600        62
    45.2800        82
    45.3000       104
    45.3200        78
    45.3400        72
    45.3600        88
    45.3800        94
    45.4000        96
    45.4200        74
    45.4400        78
    45.4600        92
    45.4800        80
    45.5000        90
    45.5200        66
    45.5400        56
    45.5600        54
    45.5800        50
    45.6000        56
    45.6200        56
    45.6400        66
    45.6600        44
    45.6800        50
    45.7000        54
    45.7200        54
    45.7400        58
    45.7600        56
    45.7800        52
    45.8000        52
    45.8200        54
    45.8400        48
    45.8600        48
    45.8800        64
    45.9000        44
    45.9200        60
    45.9400        44
    45.9600        52
    45.9800        60
    46.0000        46
    46.0200        48
    46.0400        48
    46.0600        62
    46.0800        48
    46.1000        44
    46.1200        52
    46.1400        44
    46.1600        48
    46.1800        64
    46.2000        48
    46.2200        54
    46.2400        56
    46.2600        66
    46.2800        48
    46.3000        58
    46.3200        60
    46.3400        68
    46.3600        40
    46.3800        56
    46.4000        68
    46.4200        58
    46.4400        52
    46.4600        60
    46.4800        62
    46.5000        60
    46.5200        64
    46.5400        40
    46.5600        76
    46.5800        78
    46.6000        76
    46.6200        74
    46.6400        70
    46.6600        68
    46.6800        80
    46.7000        50
    46.7200        76
    46.7400        56
    46.7600        82
    46.7800        66
    46.8000        82
    46.8200        54
    46.8400        60
    46.8600        66
    46.8800        60
    46.9000        60
    46.9200        62
    46.9400        62
    46.9600        62
    46.9800        38
    47.0000        70
    47.0200        58
    47.0400        58
    47.0600        56
    47.0800        62
    47.1000        52
    47.1200        46
    47.1400        72
    47.1600        48
    47.1800        68
    47.2000        52
    47.2200        46
    47.2400        54
    47.2600        60
    47.2800        54
    47.3000        52
    47.3200        44
    47.3400        68
    47.3600        60
    47.3800        64
    47.4000        62
    47.4200        54
    47.4400        66
    47.4600        62
    47.4800        48
    47.5000        48
    47.5200        58
    47.5400        70
    47.5600        54
    47.5800        58
    47.6000        68
    47.6200        46
    47.6400        72
    47.6600        56
    47.6800        76
    47.7000        92
    47.7200        82
    47.7400        78
    47.7600        60
    47.7800        76
    47.8000        92
    47.8200        76
    47.8400        54
    47.8600        76
    47.8800        92
    47.9000        86
    47.9200        76
    47.9400        82
    47.9600        78
    47.9800        74
    48.0000        78
    48.0200        80
    48.0400        50
    48.0600        64
    48.0800        64
    48.1000        56
    48.1200        80
    48.1400        68
    48.1600        72
    48.1800        66
    48.2000        72
    48.2200        84
    48.2400        60
    48.2600        66
    48.2800        80
    48.3000        76
    48.3200        78
    48.3400        70
    48.3600        70
    48.3800        84
    48.4000       114
    48.4200       100
    48.4400       116
    48.4600       120
    48.4800       112
    48.5000       126
    48.5200       154
    48.5400       174
    48.5600       142
    48.5800       146
    48.6000       178
    48.6200       154
    48.6400       156
    48.6600       154
    48.6800       130
    48.7000       130
    48.7200       130
    48.7400        92
    48.7600       100
    48.7800       108
    48.8000        84
    48.8200        96
    48.8400        88
    48.8600        86
    48.8800        84
    48.9000       106
    48.9200        74
    48.9400        62
    48.9600        82
    48.9800        66
    49.0000        92
    49.0200        78
    49.0400        80
    49.0600        82
    49.0800        80
    49.1000        66
    49.1200        86
    49.1400        88
    49.1600        62
    49.1800        78
    49.2000        68
    49.2200        58
    49.2400        70
    49.2600        64
    49.2800        70
    49.3000        62
    49.3200        46
    49.3400        70
    49.3600        54
    49.3800        70
    49.4000        68
    49.4200        60
    49.4400        36
    49.4600        60
    49.4800        50
    49.5000        52
    49.5200        50
    49.5400        56
    49.5600        52
    49.5800        42
    49.6000        54
    49.6200        72
    49.6400        52
    49.6600        64
    49.6800        62
    49.7000        46
    49.7200        50
    49.7400        62
    49.7600        76
    49.7800        66
    49.8000        50
    49.8200        60
    49.8400        62
    49.8600        50
    49.8800        52
    49.9000        44
    49.9200        48
    49.9400        44
    49.9600        48
    49.9800        48
    50.0000        62
    50.0200        44
    50.0400        52
    50.0600        52
    50.0800        52
    50.1000        60
    50.1200        50
    50.1400        50
    50.1600        54
    50.1800        46
    50.2000        62
    50.2200        52
    50.2400        52
    50.2600        42
    50.2800        62
    50.3000        52
    50.3200        58
    50.3400        46
    50.3600        50
    50.3800        44
    50.4000        60
    50.4200        50
    50.4400        58
    50.4600        44
    50.4800        36
    50.5000        56
    50.5200        40
    50.5400        42
    50.5600        56
    50.5800        62
    50.6000        56
    50.6200        48
    50.6400        44
    50.6600        72
    50.6800        54
    50.7000        58
    50.7200        46
    50.7400        58
    50.7600        44
    50.7800        62
    50.8000        40
    50.8200        54
    50.8400        54
    50.8600        36
    50.8800        62
    50.9000        40
    50.9200        50
    50.9400        48
    50.9600        54
    50.9800        34
    51.0000        44
    51.0200        52
    51.0400        56
    51.0600        56
    51.0800        52
    51.1000        74
    51.1200        48
    51.1400        50
    51.1600        62
    51.1800        48
    51.2000        54
    51.2200        58
    51.2400        54
    51.2600        44
    51.2800        62
    51.3000        62
    51.3200        52
    51.3400        60
    51.3600        60
    51.3800        58
    51.4000        60
    51.4200        62
    51.4400        60
    51.4600        52
    51.4800        62
    51.5000        56
    51.5200        50
    51.5400        46
    51.5600        36
    51.5800        60
    51.6000        50
    51.6200        52
    51.6400        62
    51.6600        58
    51.6800        60
    51.7000        66
    51.7200        42
    51.7400        62
    51.7600        52
    51.7800        58
    51.8000        56
    51.8200        56
    51.8400        68
    51.8600        60
    51.8800        68
    51.9000        58
    51.9200        72
    51.9400        82
    51.9600        78
    51.9800        84
    52.0000        84
    52.0200       102
    52.0400       106
    52.0600       128
    52.0800       138
    52.1000       164
    52.1200       164
    52.1400       172
    52.1600       178
    52.1800       190
    52.2000       172
    52.2200       152
    52.2400       134
    52.2600       122
    52.2800       134
    52.3000       110
    52.3200       116
    52.3400       110
    52.3600       116
    52.3800        74
    52.4000        78
    52.4200        68
    52.4400        66
    52.4600        72
    52.4800        72
    52.5000        54
    52.5200        50
    52.5400        60
    52.5600        74
    52.5800        62
    52.6000        72
    52.6200        52
    52.6400        50
    52.6600        44
    52.6800        54
    52.7000        56
    52.7200        42
    52.7400        58
    52.7600        46
    52.7800        60
    52.8000        62
    52.8200        50
    52.8400        44
    52.8600        44
    52.8800        44
    52.9000        50
    52.9200        56
    52.9400        44
    52.9600        42
    52.9800        48
    53.0000        52
    53.0200        50
    53.0400        52
    53.0600        48
    53.0800        54
    53.1000        58
    53.1200        46
    53.1400        60
    53.1600        64
    53.1800        56
    53.2000        60
    53.2200        48
    53.2400        46
    53.2600        40
    53.2800        48
    53.3000        40
    53.3200        52
    53.3400        46
    53.3600        42
    53.3800        56
    53.4000        58
    53.4200        44
    53.4400        40
    53.4600        50
    53.4800        38
    53.5000        58
    53.5200        44
    53.5400        68
    53.5600        52
    53.5800        66
    53.6000        60
    53.6200        74
    53.6400        46
    53.6600        46
    53.6800        50
    53.7000        48
    53.7200        58
    53.7400        58
    53.7600        52
    53.7800        66
    53.8000        60
    53.8200        74
    53.8400        74
    53.8600        72
    53.8800        76
    53.9000        58
    53.9200        66
    53.9400        62
    53.9600        60
    53.9800        64
    54.0000        52
    54.0200        62
    54.0400        52
    54.0600        46
    54.0800        40
    54.1000        62
    54.1200        80
    54.1400        60
    54.1600        68
    54.1800        50
    54.2000        56
    54.2200        54
    54.2400        50
    54.2600        44
    54.2800        66
    54.3000        48
    54.3200        54
    54.3400        68
    54.3600        52
    54.3800        48
    54.4000        56
    54.4200        48
    54.4400        52
    54.4600        52
    54.4800        60
    54.5000        52
    54.5200        52
    54.5400        52
    54.5600        62
    54.5800        66
    54.6000        58
    54.6200        60
    54.6400        60
    54.6600        58
    54.6800        66
    54.7000        50
    54.7200        60
    54.7400        60
    54.7600        68
    54.7800        60
    54.8000        56
    54.8200        60
    54.8400        70
    54.8600        62
    54.8800        70
    54.9000        52
    54.9200        56
    54.9400        78
    54.9600        74
    54.9800        68
    55.0000        58
    55.0200        64
    55.0400        60
    55.0600        76
    55.0800        52
    55.1000        74
    55.1200        64
    55.1400        60
    55.1600        58
    55.1800        54
    55.2000        58
    55.2200        62
    55.2400        64
    55.2600        62
    55.2800        58
    55.3000        76
    55.3200        84
    55.3400        76
    55.3600        72
    55.3800        86
    55.4000        68
    55.4200        70
    55.4400        74
    55.4600        88
    55.4800        82
    55.5000        96
    55.5200        92
    55.5400        82
    55.5600       116
    55.5800       120
    55.6000       128
    55.6200       150
    55.6400       118
    55.6600       118
    55.6800       134
    55.7000        94
    55.7200        98
    55.7400        98
    55.7600        94
    55.7800        88
    55.8000        96
    55.8200        96
    55.8400        80
    55.8600        62
    55.8800        78
    55.9000        66
    55.9200        98
    55.9400        62
    55.9600        82
    55.9800        72
    56.0000        56
    56.0200        58
    56.0400        64
    56.0600        62
    56.0800        66
    56.1000        48
    56.1200        52
    56.1400        56
    56.1600        58
    56.1800        48
    56.2000        52
    56.2200        54
    56.2400        56
    56.2600        72
    56.2800        52
    56.3000        56
    56.3200        58
    56.3400        50
    56.3600        68
    56.3800        76
    56.4000        54
    56.4200        84
    56.4400        84
    56.4600        60
    56.4800        66
    56.5000        72
    56.5200        74
    56.5400        60
    56.5600        68
    56.5800        64
    56.6000        66
    56.6200        62
    56.6400        70
    56.6600        48
    56.6800        66
    56.7000        62
    56.7200        56
    56.7400        40
    56.7600        60
    56.7800        62
    56.8000        60
    56.8200        58
    56.8400        64
    56.8600        64
    56.8800        56
    56.9000        38
    56.9200        50
    56.9400        38
    56.9600        44
    56.9800        64
    57.0000        48
    57.0200        52
    57.0400        50
    57.0600        60
    57.0800        58
    57.1000        48
    57.1200        52
    57.1400        58
    57.1600        56
    57.1800        46
    57.2000        60
    57.2200        38
    57.2400        50
    57.2600        56
    57.2800        54
    57.3000        42
    57.3200        58
    57.3400        44
    57.3600        46
    57.3800        64
    57.4000        54
    57.4200        46
    57.4400        52
    57.4600        50
    57.4800        56
    57.5000        56
    57.5200        52
    57.5400        52
    57.5600        52
    57.5800        48
    57.6000        46
    57.6200        58
    57.6400        60
    57.6600        62
    57.6800        40
    57.7000        56
    57.7200        58
    57.7400        50
    57.7600        64
    57.7800        50
    57.8000        52
    57.8200        60
    57.8400        46
    57.8600        60
    57.8800        42
    57.9000        50
    57.9200        54
    57.9400        42
    57.9600        42
    57.9800        58
    58.0000        44
    58.0200        54
    58.0400        52
    58.0600        56
    58.0800        48
    58.1000        50
    58.1200        62
    58.1400        54
    58.1600        50
    58.1800        46
    58.2000        58
    58.2200        48
    58.2400        42
    58.2600        46
    58.2800        56
    58.3000        52
    58.3200        44
    58.3400        46
    58.3600        62
    58.3800        42
    58.4000        48
    58.4200        58
    58.4400        48
    58.4600        62
    58.4800        36
    58.5000        54
    58.5200        44
    58.5400        50
    58.5600        56
    58.5800        46
    58.6000        54
    58.6200        58
    58.6400        58
    58.6600        66
    58.6800        46
    58.7000        56
    58.7200        66
    58.7400        68
    58.7600        50
    58.7800        64
    58.8000        72
    58.8200        70
    58.8400        72
    58.8600        72
    58.8800        82
    58.9000        72
    58.9200        76
    58.9400        78
    58.9600        76
    58.9800        58
    59.0000        54
    59.0200        48
    59.0400        66
    59.0600        56
    59.0800        68
    59.1000        54
    59.1200        64
    59.1400        52
    59.1600        64
    59.1800        54
    59.2000        34
    59.2200        56
    59.2400        42
    59.2600        68
    59.2800        46
    59.3000        62
    59.3200        58
    59.3400        54
    59.3600        54
    59.3800        44
    59.4000        64
    59.4200        40
    59.4400        50
    59.4600        50
    59.4800        46
    59.5000        62
    59.5200        50
    59.5400        38
    59.5600        52
    59.5800        50
    59.6000        52
    59.6200        56
    59.6400        44
    59.6600        48
    59.6800        52
    59.7000        50
    59.7200        52
    59.7400        50
    59.7600        50
    59.7800        54
    59.8000        44
    59.8200        54
    59.8400        44
    59.8600        46
    59.8800        54
    59.9000        62
    59.9200        62
    59.9400        42
    59.9600        48
    59.9800        50
    60.0000        46
    60.0200        56
    60.0400        48
    60.0600        48
    60.0800        40
    60.1000        46
    60.1200        58
    60.1400        50
    60.1600        40
    60.1800        62
    60.2000        48
    60.2200        48
    60.2400        54
    60.2600        66
    60.2800        56
    60.3000        52
    60.3200        52
    60.3400        60
    60.3600        62
    60.3800        62
    60.4000        70
    60.4200        62
    60.4400        72
    60.4600        56
    60.4800        64
    60.5000        64
    60.5200        64
    60.5400        76
    60.5600        72
    60.5800        76
    60.6000        74
    60.6200        52
    60.6400        66
    60.6600        78
    60.6800        72
    60.7000        72
    60.7200        72
    60.7400        62
    60.7600        64
    60.7800        72
    60.8000        58
    60.8200        58
    60.8400        64
    60.8600        66
    60.8800        68
    60.9000        48
    60.9200        48
    60.9400        46
    60.9600        50
    60.9800        60
    61.0000        66
    61.0200        58
    61.0400        50
    61.0600        56
    61.0800        58
    61.1000        54
    61.1200        54
    61.1400        58
    61.1600        42
    61.1800        60
    61.2000        54
    61.2200        56
    61.2400        48
    61.2600        54
    61.2800        38
    61.3000        58
    61.3200        58
    61.3400        62
    61.3600        44
    61.3800        54
    61.4000        52
    61.4200        52
    61.4400        44
    61.4600        38
    61.4800        54
    61.5000        48
    61.5200        60
    61.5400        56
    61.5600        52
    61.5800        58
    61.6000        52
    61.6200        50
    61.6400        64
    61.6600        50
    61.6800        54
    61.7000        40
    61.7200        50
    61.7400        56
    61.7600        60
    61.7800        74
    61.8000        52
    61.8200        52
    61.8400        48
    61.8600        52
    61.8800        60
    61.9000        48
    61.9200        66
    61.9400        50
    61.9600        70
    61.9800        66
    62.0000        86
    62.0200        68
    62.0400        64
    62.0600        74
    62.0800        96
    62.1000        90
    62.1200        90
    62.1400        94
    62.1600        74
    62.1800        98
    62.2000        94
    62.2200        84
    62.2400        80
    62.2600        76
    62.2800        90
    62.3000        86
    62.3200        72
    62.3400        86
    62.3600        70
    62.3800        82
    62.4000        66
    62.4200        60
    62.4400        66
    62.4600        64
    62.4800        66
    62.5000        66
    62.5200        62
    62.5400        64
    62.5600        66
    62.5800        64
    62.6000        60
    62.6200        66
    62.6400        60
    62.6600        64
    62.6800        54
    62.7000        50
    62.7200        56
    62.7400        56
    62.7600        50
    62.7800        64
    62.8000        52
    62.8200        46
    62.8400        50
    62.8600        50
    62.8800        60
    62.9000        66
    62.9200        50
    62.9400        44
    62.9600        46
    62.9800        48
    63.0000        60
    63.0200        44
    63.0400        48
    63.0600        54
    63.0800        54
    63.1000        50
    63.1200        50
    63.1400        50
    63.1600        44
    63.1800        42
    63.2000        54
    63.2200        58
    63.2400        56
    63.2600        48
    63.2800        54
    63.3000        46
    63.3200        64
    63.3400        44
    63.3600        50
    63.3800        52
    63.4000        46
    63.4200        42
    63.4400        58
    63.4600        46
    63.4800        44
    63.5000        50
    63.5200        40
    63.5400        52
    63.5600        44
    63.5800        46
    63.6000        42
    63.6200        54
    63.6400        40
    63.6600        46
    63.6800        42
    63.7000        52
    63.7200        50
    63.7400        54
    63.7600        52
    63.7800        44
    63.8000        54
    63.8200        44
    63.8400        42
    63.8600        50
    63.8800        52
    63.9000        54
    63.9200        44
    63.9400        50
    63.9600        40
    63.9800        50
    64.0000        56
    64.0200        54
    64.0400        52
    64.0600        50
    64.0800        40
    64.1000        50
    64.1200        48
    64.1400        46
    64.1600        46
    64.1800        54
    64.2000        38
    64.2200        46
    64.2400        54
    64.2600        54
    64.2800        50
    64.3000        50
    64.3200        42
    64.3400        42
    64.3600        42
    64.3800        50
    64.4000        50
    64.4200        54
    64.4400        60
    64.4600        50
    64.4800        48
    64.5000        36
    64.5200        38
    64.5400        36
    64.5600        52
    64.5800        38
    64.6000        32
    64.6200        54
    64.6400        54
    64.6600        50
    64.6800        52
    64.7000        40
    64.7200        62
    64.7400        64
    64.7600        48
    64.7800        50
    64.8000        44
    64.8200        38
    64.8400        48
    64.8600        58
    64.8800        36
    64.9000        46
    64.9200        48
    64.9400        54
    64.9600        44
    64.9800        42
    65.0000        46
