/////////////////////////////////////////////////////////////////////////////////
/// Profile Data Ascii Dump (XRD)                                             ///
/////////////////////////////////////////////////////////////////////////////////

  Group     : Swayze
  Data      : LV95-30
  File Name : LV95-30.RAW

# Profile Datafile
          comment             = Epsomite 
          date & time         = 08-04-09 08:22:13 

# Measurement Condition
    X-ray tube
          target              = Cu 
          voltage             = 40.0 (kV)
          current             = 30.0 (mA)
    Slits
          divergence slit     = 2.00000 (deg) 
          scatter slit        = 2.00000 (deg) 
          receiving slit      = 0.15000 (mm)  
    Scanning
          drive axis          = Theta-2Theta 
          scan range          =    4.000 -   65.000 
          scan mode           = Continuous Scan 
          scan speed          =   2.0000 (deg/min) 
          sampling pitch      =   0.0200 (deg) 
          preset time         =   0.60 (sec) 

# Data      [ Total No. = 3051 ]
  <2Theta>   <   I   >
     4.0000       184
     4.0200       190
     4.0400       194
     4.0600       186
     4.0800       188
     4.1000       170
     4.1200       184
     4.1400       208
     4.1600       198
     4.1800       186
     4.2000       200
     4.2200       218
     4.2400       180
     4.2600       180
     4.2800       192
     4.3000       188
     4.3200       188
     4.3400       194
     4.3600       196
     4.3800       168
     4.4000       184
     4.4200       204
     4.4400       184
     4.4600       166
     4.4800       182
     4.5000       202
     4.5200       180
     4.5400       176
     4.5600       190
     4.5800       192
     4.6000       176
     4.6200       138
     4.6400       162
     4.6600       160
     4.6800       148
     4.7000       160
     4.7200       160
     4.7400       160
     4.7600       178
     4.7800       148
     4.8000       170
     4.8200       174
     4.8400       170
     4.8600       168
     4.8800       182
     4.9000       166
     4.9200       150
     4.9400       160
     4.9600       214
     4.9800       178
     5.0000       134
     5.0200       168
     5.0400       148
     5.0600       166
     5.0800       166
     5.1000       176
     5.1200       190
     5.1400       196
     5.1600       152
     5.1800       160
     5.2000       162
     5.2200       168
     5.2400       168
     5.2600       176
     5.2800       180
     5.3000       154
     5.3200       178
     5.3400       174
     5.3600       158
     5.3800       162
     5.4000       150
     5.4200       152
     5.4400       182
     5.4600       168
     5.4800       150
     5.5000       182
     5.5200       164
     5.5400       154
     5.5600       148
     5.5800       172
     5.6000       150
     5.6200       164
     5.6400       180
     5.6600       168
     5.6800       146
     5.7000       158
     5.7200       178
     5.7400       176
     5.7600       166
     5.7800       178
     5.8000       174
     5.8200       178
     5.8400       158
     5.8600       162
     5.8800       178
     5.9000       178
     5.9200       186
     5.9400       180
     5.9600       176
     5.9800       152
     6.0000       174
     6.0200       176
     6.0400       168
     6.0600       146
     6.0800       158
     6.1000       148
     6.1200       184
     6.1400       162
     6.1600       152
     6.1800       184
     6.2000       184
     6.2200       142
     6.2400       146
     6.2600       162
     6.2800       176
     6.3000       134
     6.3200       130
     6.3400       148
     6.3600       146
     6.3800       174
     6.4000       142
     6.4200       150
     6.4400       144
     6.4600       146
     6.4800       166
     6.5000       172
     6.5200       138
     6.5400       130
     6.5600       134
     6.5800       142
     6.6000       122
     6.6200       132
     6.6400       170
     6.6600       136
     6.6800       126
     6.7000       130
     6.7200       144
     6.7400       158
     6.7600       140
     6.7800       132
     6.8000       156
     6.8200       136
     6.8400       112
     6.8600       150
     6.8800       130
     6.9000       142
     6.9200       146
     6.9400       122
     6.9600       132
     6.9800       142
     7.0000       128
     7.0200       128
     7.0400       122
     7.0600       132
     7.0800       138
     7.1000       134
     7.1200       122
     7.1400       144
     7.1600       130
     7.1800       136
     7.2000       134
     7.2200       134
     7.2400       106
     7.2600       120
     7.2800       140
     7.3000       128
     7.3200       126
     7.3400       112
     7.3600       144
     7.3800       134
     7.4000       112
     7.4200       130
     7.4400       128
     7.4600       148
     7.4800       126
     7.5000       134
     7.5200       144
     7.5400       122
     7.5600       110
     7.5800       116
     7.6000       146
     7.6200       126
     7.6400       118
     7.6600       110
     7.6800       116
     7.7000       118
     7.7200       102
     7.7400       110
     7.7600       114
     7.7800       112
     7.8000       116
     7.8200       120
     7.8400        96
     7.8600       106
     7.8800       122
     7.9000       104
     7.9200       108
     7.9400       114
     7.9600       116
     7.9800       114
     8.0000       116
     8.0200       128
     8.0400       122
     8.0600       110
     8.0800       122
     8.1000       128
     8.1200       128
     8.1400       150
     8.1600       120
     8.1800       140
     8.2000       148
     8.2200       138
     8.2400       124
     8.2600       122
     8.2800       122
     8.3000       162
     8.3200       148
     8.3400       146
     8.3600       142
     8.3800       148
     8.4000       150
     8.4200       120
     8.4400       138
     8.4600       130
     8.4800       146
     8.5000       122
     8.5200       138
     8.5400       128
     8.5600       122
     8.5800       124
     8.6000       148
     8.6200       156
     8.6400       154
     8.6600       126
     8.6800       150
     8.7000       160
     8.7200       172
     8.7400       128
     8.7600       126
     8.7800       144
     8.8000       136
     8.8200       144
     8.8400       120
     8.8600       124
     8.8800       110
     8.9000       150
     8.9200       110
     8.9400       128
     8.9600       138
     8.9800       128
     9.0000       126
     9.0200       100
     9.0400        94
     9.0600       142
     9.0800       130
     9.1000       128
     9.1200       130
     9.1400       110
     9.1600       120
     9.1800       136
     9.2000       122
     9.2200       104
     9.2400       132
     9.2600       114
     9.2800       130
     9.3000       116
     9.3200       128
     9.3400       112
     9.3600       132
     9.3800       140
     9.4000       144
     9.4200       120
     9.4400       118
     9.4600       120
     9.4800        82
     9.5000       126
     9.5200       118
     9.5400       104
     9.5600       114
     9.5800       130
     9.6000       118
     9.6200        94
     9.6400       114
     9.6600       124
     9.6800       112
     9.7000       126
     9.7200       102
     9.7400       114
     9.7600       108
     9.7800       126
     9.8000       104
     9.8200       114
     9.8400       112
     9.8600       104
     9.8800       108
     9.9000       116
     9.9200       118
     9.9400        90
     9.9600       122
     9.9800       114
    10.0000       114
    10.0200       116
    10.0400       106
    10.0600       114
    10.0800       108
    10.1000       114
    10.1200       118
    10.1400       102
    10.1600       120
    10.1800       100
    10.2000       112
    10.2200       104
    10.2400        94
    10.2600        94
    10.2800       110
    10.3000       100
    10.3200        98
    10.3400       108
    10.3600       110
    10.3800       104
    10.4000        92
    10.4200       116
    10.4400        96
    10.4600       104
    10.4800        92
    10.5000       104
    10.5200        98
    10.5400       100
    10.5600       106
    10.5800        88
    10.6000        88
    10.6200       106
    10.6400       102
    10.6600        98
    10.6800        94
    10.7000        98
    10.7200       104
    10.7400        98
    10.7600       118
    10.7800       114
    10.8000        74
    10.8200       112
    10.8400        88
    10.8600       106
    10.8800       106
    10.9000       112
    10.9200        92
    10.9400       102
    10.9600        86
    10.9800        88
    11.0000       108
    11.0200        84
    11.0400       106
    11.0600       106
    11.0800        98
    11.1000       100
    11.1200       100
    11.1400        80
    11.1600        98
    11.1800        82
    11.2000        92
    11.2200        92
    11.2400        94
    11.2600       110
    11.2800        90
    11.3000        86
    11.3200        86
    11.3400        96
    11.3600        92
    11.3800        84
    11.4000        88
    11.4200        94
    11.4400       120
    11.4600       134
    11.4800       128
    11.5000       108
    11.5200        96
    11.5400        94
    11.5600        92
    11.5800        92
    11.6000       102
    11.6200        88
    11.6400        78
    11.6600        86
    11.6800        88
    11.7000        96
    11.7200       116
    11.7400        90
    11.7600        82
    11.7800        90
    11.8000        98
    11.8200        84
    11.8400        90
    11.8600        86
    11.8800        94
    11.9000       122
    11.9200        88
    11.9400       102
    11.9600        90
    11.9800        90
    12.0000        92
    12.0200        96
    12.0400       100
    12.0600        94
    12.0800        96
    12.1000        96
    12.1200        90
    12.1400        98
    12.1600       106
    12.1800        94
    12.2000       122
    12.2200       104
    12.2400       106
    12.2600       110
    12.2800       120
    12.3000        82
    12.3200        82
    12.3400       122
    12.3600       104
    12.3800        94
    12.4000       100
    12.4200       102
    12.4400        72
    12.4600        86
    12.4800        82
    12.5000       108
    12.5200       116
    12.5400        98
    12.5600       112
    12.5800       100
    12.6000        94
    12.6200        98
    12.6400       136
    12.6600       114
    12.6800       122
    12.7000       156
    12.7200       148
    12.7400       158
    12.7600       152
    12.7800       180
    12.8000       206
    12.8200       204
    12.8400       188
    12.8600       184
    12.8800       128
    12.9000       110
    12.9200        96
    12.9400       100
    12.9600        92
    12.9800        94
    13.0000        86
    13.0200        72
    13.0400        70
    13.0600        96
    13.0800        78
    13.1000        82
    13.1200        78
    13.1400        82
    13.1600        82
    13.1800        78
    13.2000        78
    13.2200        92
    13.2400        86
    13.2600        78
    13.2800        66
    13.3000        76
    13.3200        68
    13.3400        84
    13.3600        80
    13.3800        58
    13.4000        82
    13.4200        74
    13.4400        80
    13.4600        76
    13.4800        76
    13.5000        64
    13.5200        68
    13.5400        72
    13.5600        90
    13.5800        76
    13.6000        82
    13.6200        74
    13.6400        76
    13.6600        96
    13.6800        80
    13.7000       104
    13.7200        72
    13.7400        92
    13.7600        82
    13.7800        72
    13.8000        84
    13.8200        76
    13.8400        76
    13.8600        76
    13.8800        62
    13.9000        80
    13.9200        68
    13.9400        70
    13.9600        78
    13.9800        64
    14.0000        70
    14.0200        64
    14.0400        86
    14.0600        76
    14.0800        80
    14.1000        64
    14.1200        62
    14.1400        70
    14.1600        58
    14.1800        66
    14.2000        66
    14.2200        42
    14.2400        72
    14.2600        70
    14.2800        66
    14.3000        76
    14.3200        62
    14.3400        66
    14.3600        72
    14.3800        56
    14.4000        74
    14.4200        62
    14.4400        66
    14.4600        82
    14.4800        82
    14.5000        74
    14.5200        70
    14.5400        76
    14.5600        84
    14.5800        70
    14.6000        58
    14.6200        62
    14.6400        78
    14.6600        70
    14.6800        82
    14.7000        72
    14.7200        78
    14.7400        78
    14.7600        68
    14.7800        74
    14.8000        70
    14.8200        68
    14.8400        88
    14.8600        76
    14.8800        62
    14.9000        74
    14.9200        66
    14.9400        68
    14.9600        74
    14.9800        50
    15.0000        48
    15.0200        58
    15.0400        66
    15.0600        70
    15.0800        60
    15.1000        72
    15.1200        56
    15.1400        68
    15.1600        62
    15.1800        58
    15.2000        58
    15.2200        62
    15.2400        52
    15.2600        68
    15.2800        68
    15.3000        68
    15.3200        76
    15.3400        66
    15.3600        74
    15.3800        62
    15.4000        56
    15.4200        58
    15.4400        72
    15.4600        70
    15.4800        82
    15.5000        60
    15.5200        72
    15.5400        64
    15.5600        90
    15.5800        62
    15.6000        66
    15.6200        66
    15.6400        72
    15.6600        76
    15.6800        78
    15.7000        98
    15.7200        64
    15.7400        66
    15.7600        88
    15.7800        86
    15.8000        56
    15.8200        74
    15.8400        68
    15.8600        84
    15.8800        72
    15.9000        80
    15.9200        86
    15.9400        98
    15.9600       102
    15.9800        98
    16.0000       126
    16.0200       140
    16.0400       152
    16.0600       196
    16.0800       200
    16.1000       224
    16.1200       242
    16.1400       302
    16.1600       274
    16.1800       272
    16.2000       230
    16.2200       202
    16.2400       178
    16.2600       108
    16.2800        98
    16.3000        70
    16.3200        62
    16.3400        72
    16.3600        76
    16.3800        82
    16.4000        80
    16.4200        84
    16.4400        48
    16.4600        76
    16.4800        66
    16.5000        70
    16.5200        66
    16.5400        50
    16.5600        62
    16.5800        60
    16.6000        70
    16.6200        58
    16.6400        64
    16.6600        84
    16.6800        62
    16.7000        66
    16.7200        58
    16.7400        68
    16.7600        64
    16.7800        50
    16.8000        68
    16.8200        68
    16.8400        60
    16.8600        64
    16.8800        56
    16.9000        64
    16.9200        56
    16.9400        86
    16.9600        92
    16.9800        72
    17.0000        86
    17.0200        88
    17.0400        80
    17.0600        90
    17.0800        64
    17.1000        76
    17.1200        60
    17.1400        58
    17.1600        70
    17.1800        68
    17.2000        70
    17.2200        62
    17.2400        60
    17.2600        60
    17.2800        72
    17.3000        56
    17.3200        64
    17.3400        56
    17.3600        56
    17.3800        60
    17.4000        78
    17.4200        64
    17.4400        70
    17.4600        52
    17.4800        88
    17.5000        72
    17.5200        64
    17.5400        84
    17.5600        78
    17.5800        66
    17.6000        64
    17.6200        82
    17.6400        64
    17.6600        66
    17.6800        74
    17.7000        64
    17.7200        72
    17.7400        68
    17.7600        62
    17.7800        70
    17.8000        66
    17.8200        64
    17.8400        70
    17.8600        64
    17.8800        60
    17.9000        72
    17.9200        70
    17.9400        62
    17.9600        78
    17.9800        66
    18.0000        62
    18.0200        66
    18.0400        72
    18.0600        78
    18.0800        58
    18.1000        78
    18.1200        66
    18.1400        76
    18.1600        60
    18.1800        72
    18.2000        80
    18.2200        80
    18.2400        62
    18.2600        70
    18.2800        86
    18.3000        72
    18.3200        72
    18.3400        74
    18.3600        84
    18.3800        92
    18.4000        72
    18.4200        82
    18.4400       102
    18.4600        92
    18.4800        84
    18.5000        86
    18.5200        94
    18.5400       110
    18.5600       114
    18.5800       108
    18.6000       132
    18.6200       136
    18.6400       154
    18.6600       180
    18.6800       198
    18.7000       208
    18.7200       194
    18.7400       178
    18.7600       144
    18.7800       116
    18.8000        84
    18.8200        70
    18.8400        76
    18.8600        70
    18.8800        62
    18.9000        70
    18.9200        84
    18.9400        60
    18.9600        74
    18.9800        74
    19.0000        64
    19.0200        60
    19.0400        60
    19.0600        78
    19.0800        82
    19.1000        66
    19.1200        76
    19.1400        76
    19.1600        80
    19.1800        88
    19.2000       104
    19.2200        86
    19.2400        86
    19.2600        78
    19.2800        74
    19.3000        76
    19.3200        92
    19.3400        90
    19.3600       110
    19.3800       102
    19.4000       142
    19.4200       120
    19.4400       132
    19.4600       148
    19.4800       182
    19.5000       172
    19.5200       212
    19.5400       232
    19.5600       268
    19.5800       286
    19.6000       334
    19.6200       382
    19.6400       438
    19.6600       480
    19.6800       540
    19.7000       558
    19.7200       554
    19.7400       506
    19.7600       498
    19.7800       392
    19.8000       336
    19.8200       252
    19.8400       238
    19.8600       186
    19.8800       144
    19.9000       120
    19.9200       124
    19.9400       112
    19.9600       106
    19.9800       112
    20.0000        94
    20.0200        96
    20.0400       102
    20.0600       104
    20.0800       104
    20.1000        92
    20.1200       116
    20.1400        84
    20.1600        90
    20.1800       110
    20.2000       102
    20.2200       130
    20.2400        92
    20.2600       110
    20.2800        88
    20.3000       114
    20.3200       120
    20.3400       114
    20.3600       118
    20.3800       110
    20.4000       152
    20.4200       156
    20.4400       214
    20.4600       198
    20.4800       212
    20.5000       226
    20.5200       204
    20.5400       232
    20.5600       222
    20.5800       220
    20.6000       266
    20.6200       298
    20.6400       310
    20.6600       316
    20.6800       344
    20.7000       338
    20.7200       304
    20.7400       252
    20.7600       238
    20.7800       200
    20.8000       168
    20.8200       140
    20.8400       118
    20.8600       110
    20.8800       136
    20.9000       122
    20.9200       100
    20.9400        96
    20.9600        80
    20.9800       100
    21.0000        72
    21.0200        90
    21.0400        86
    21.0600       118
    21.0800        78
    21.1000        90
    21.1200        80
    21.1400        90
    21.1600        86
    21.1800        80
    21.2000        70
    21.2200        78
    21.2400        78
    21.2600        84
    21.2800        72
    21.3000        72
    21.3200        92
    21.3400        82
    21.3600        82
    21.3800        88
    21.4000        76
    21.4200        78
    21.4400        80
    21.4600        78
    21.4800        80
    21.5000        88
    21.5200        80
    21.5400        78
    21.5600        92
    21.5800        70
    21.6000        68
    21.6200        90
    21.6400       108
    21.6600        92
    21.6800        98
    21.7000        92
    21.7200       100
    21.7400        94
    21.7600       132
    21.7800       120
    21.8000       122
    21.8200       132
    21.8400       132
    21.8600       132
    21.8800       106
    21.9000       110
    21.9200       106
    21.9400        96
    21.9600        90
    21.9800        88
    22.0000        86
    22.0200        92
    22.0400        86
    22.0600        88
    22.0800        86
    22.1000       102
    22.1200       112
    22.1400       130
    22.1600       166
    22.1800       150
    22.2000       214
    22.2200       224
    22.2400       266
    22.2600       316
    22.2800       338
    22.3000       342
    22.3200       328
    22.3400       342
    22.3600       330
    22.3800       236
    22.4000       202
    22.4200       178
    22.4400       138
    22.4600        84
    22.4800       122
    22.5000       104
    22.5200        94
    22.5400        74
    22.5600        80
    22.5800        82
    22.6000        84
    22.6200        56
    22.6400        86
    22.6600        90
    22.6800        66
    22.7000        82
    22.7200        84
    22.7400        96
    22.7600        86
    22.7800        82
    22.8000        86
    22.8200        94
    22.8400        76
    22.8600        80
    22.8800        80
    22.9000        78
    22.9200        70
    22.9400        78
    22.9600        88
    22.9800        76
    23.0000        80
    23.0200        86
    23.0400        80
    23.0600        78
    23.0800       102
    23.1000       104
    23.1200        78
    23.1400       120
    23.1600       128
    23.1800       110
    23.2000       134
    23.2200       118
    23.2400       118
    23.2600       138
    23.2800       122
    23.3000       136
    23.3200       112
    23.3400       120
    23.3600       134
    23.3800       126
    23.4000       106
    23.4200       134
    23.4400       122
    23.4600       114
    23.4800       118
    23.5000       108
    23.5200        90
    23.5400        90
    23.5600        86
    23.5800       102
    23.6000        82
    23.6200        96
    23.6400        72
    23.6600        80
    23.6800        86
    23.7000        74
    23.7200        80
    23.7400        88
    23.7600        74
    23.7800        94
    23.8000        62
    23.8200        88
    23.8400        86
    23.8600        74
    23.8800        74
    23.9000        86
    23.9200       106
    23.9400        74
    23.9600        96
    23.9800       134
    24.0000       112
    24.0200       120
    24.0400       102
    24.0600       116
    24.0800        92
    24.1000        98
    24.1200        92
    24.1400        92
    24.1600        94
    24.1800       100
    24.2000        66
    24.2200        96
    24.2400        76
    24.2600        92
    24.2800        78
    24.3000        92
    24.3200        78
    24.3400        92
    24.3600        88
    24.3800        94
    24.4000        84
    24.4200        80
    24.4400        96
    24.4600        98
    24.4800        90
    24.5000        92
    24.5200       138
    24.5400       112
    24.5600       128
    24.5800       134
    24.6000       126
    24.6200       126
    24.6400       114
    24.6600       112
    24.6800       110
    24.7000        76
    24.7200        84
    24.7400       104
    24.7600        96
    24.7800        86
    24.8000        72
    24.8200        82
    24.8400        84
    24.8600        78
    24.8800        92
    24.9000        88
    24.9200        84
    24.9400        68
    24.9600        82
    24.9800        84
    25.0000        84
    25.0200        72
    25.0400        88
    25.0600        92
    25.0800        84
    25.1000        72
    25.1200        80
    25.1400        84
    25.1600       102
    25.1800        80
    25.2000       112
    25.2200       104
    25.2400        86
    25.2600       102
    25.2800       100
    25.3000        98
    25.3200       106
    25.3400       118
    25.3600        92
    25.3800       128
    25.4000       102
    25.4200       124
    25.4400       120
    25.4600       122
    25.4800       108
    25.5000       142
    25.5200       110
    25.5400       132
    25.5600       114
    25.5800        96
    25.6000        92
    25.6200        88
    25.6400       104
    25.6600        90
    25.6800        94
    25.7000        86
    25.7200        84
    25.7400        92
    25.7600       108
    25.7800        84
    25.8000       120
    25.8200       116
    25.8400       114
    25.8600       134
    25.8800       144
    25.9000       180
    25.9200       212
    25.9400       204
    25.9600       242
    25.9800       270
    26.0000       300
    26.0200       330
    26.0400       316
    26.0600       318
    26.0800       304
    26.1000       276
    26.1200       224
    26.1400       242
    26.1600       192
    26.1800       204
    26.2000       240
    26.2200       266
    26.2400       326
    26.2600       332
    26.2800       408
    26.3000       492
    26.3200       560
    26.3400       768
    26.3600       940
    26.3800      1224
    26.4000      1378
    26.4200      1570
    26.4400      1754
    26.4600      1796
    26.4800      1668
    26.5000      1502
    26.5200      1166
    26.5400       958
    26.5600       720
    26.5800       554
    26.6000       432
    26.6200       320
    26.6400       240
    26.6600       202
    26.6800       210
    26.7000       188
    26.7200       164
    26.7400       172
    26.7600       160
    26.7800       152
    26.8000       148
    26.8200       148
    26.8400       126
    26.8600       150
    26.8800       122
    26.9000       146
    26.9200       146
    26.9400       154
    26.9600       136
    26.9800       112
    27.0000       150
    27.0200       130
    27.0400       140
    27.0600       154
    27.0800       136
    27.1000       140
    27.1200       166
    27.1400       156
    27.1600       148
    27.1800       160
    27.2000       160
    27.2200       200
    27.2400       260
    27.2600       290
    27.2800       244
    27.3000       252
    27.3200       278
    27.3400       252
    27.3600       216
    27.3800       234
    27.4000       216
    27.4200       238
    27.4400       268
    27.4600       258
    27.4800       282
    27.5000       298
    27.5200       356
    27.5400       358
    27.5600       382
    27.5800       378
    27.6000       322
    27.6200       278
    27.6400       258
    27.6600       252
    27.6800       240
    27.7000       218
    27.7200       230
    27.7400       222
    27.7600       194
    27.7800       202
    27.8000       206
    27.8200       204
    27.8400       176
    27.8600       202
    27.8800       164
    27.9000       154
    27.9200       162
    27.9400       148
    27.9600       134
    27.9800       156
    28.0000       132
    28.0200       134
    28.0400       122
    28.0600       108
    28.0800       110
    28.1000        86
    28.1200       112
    28.1400       120
    28.1600        76
    28.1800        86
    28.2000        90
    28.2200        70
    28.2400        74
    28.2600        74
    28.2800        78
    28.3000        64
    28.3200        54
    28.3400        78
    28.3600        70
    28.3800        54
    28.4000        72
    28.4200        68
    28.4400        56
    28.4600        46
    28.4800        80
    28.5000        74
    28.5200        66
    28.5400        64
    28.5600        66
    28.5800        68
    28.6000        50
    28.6200        82
    28.6400        78
    28.6600        62
    28.6800        78
    28.7000        64
    28.7200        66
    28.7400        84
    28.7600        86
    28.7800        88
    28.8000        68
    28.8200        86
    28.8400        98
    28.8600        70
    28.8800       122
    28.9000        98
    28.9200       118
    28.9400       100
    28.9600        86
    28.9800        84
    29.0000        90
    29.0200        88
    29.0400        76
    29.0600        72
    29.0800        64
    29.1000        76
    29.1200        50
    29.1400        62
    29.1600        48
    29.1800        66
    29.2000        78
    29.2200        84
    29.2400        66
    29.2600        60
    29.2800        80
    29.3000        64
    29.3200        54
    29.3400        70
    29.3600        72
    29.3800        74
    29.4000        70
    29.4200        72
    29.4400        90
    29.4600        76
    29.4800        72
    29.5000        82
    29.5200        96
    29.5400        98
    29.5600        98
    29.5800       110
    29.6000       136
    29.6200       108
    29.6400       130
    29.6600       146
    29.6800       158
    29.7000       158
    29.7200       184
    29.7400       190
    29.7600       208
    29.7800       194
    29.8000       188
    29.8200       196
    29.8400       230
    29.8600       198
    29.8800       182
    29.9000       174
    29.9200       178
    29.9400       166
    29.9600       180
    29.9800       192
    30.0000       218
    30.0200       244
    30.0400       266
    30.0600       258
    30.0800       278
    30.1000       346
    30.1200       388
    30.1400       398
    30.1600       412
    30.1800       368
    30.2000       310
    30.2200       308
    30.2400       298
    30.2600       226
    30.2800       176
    30.3000       156
    30.3200       140
    30.3400       138
    30.3600        98
    30.3800       114
    30.4000       104
    30.4200       104
    30.4400        78
    30.4600        86
    30.4800       100
    30.5000        90
    30.5200       106
    30.5400        82
    30.5600        98
    30.5800       102
    30.6000        90
    30.6200        96
    30.6400       108
    30.6600       120
    30.6800       116
    30.7000       118
    30.7200       108
    30.7400       126
    30.7600       114
    30.7800       118
    30.8000       122
    30.8200       130
    30.8400       166
    30.8600       130
    30.8800       134
    30.9000       124
    30.9200       142
    30.9400       124
    30.9600       128
    30.9800       134
    31.0000        98
    31.0200        92
    31.0400       102
    31.0600        78
    31.0800        88
    31.1000        80
    31.1200        82
    31.1400        74
    31.1600        68
    31.1800        52
    31.2000        84
    31.2200        68
    31.2400        56
    31.2600        78
    31.2800        60
    31.3000        70
    31.3200        62
    31.3400        48
    31.3600        50
    31.3800        64
    31.4000        58
    31.4200        64
    31.4400        66
    31.4600        46
    31.4800        62
    31.5000        46
    31.5200        52
    31.5400        74
    31.5600        56
    31.5800        70
    31.6000        66
    31.6200        66
    31.6400        52
    31.6600        60
    31.6800        50
    31.7000        60
    31.7200        74
    31.7400        80
    31.7600        70
    31.7800        90
    31.8000       110
    31.8200        96
    31.8400        90
    31.8600        88
    31.8800        98
    31.9000        90
    31.9200        86
    31.9400        98
    31.9600        84
    31.9800        92
    32.0000       116
    32.0200       132
    32.0400       134
    32.0600       118
    32.0800       156
    32.1000       166
    32.1200       170
    32.1400       180
    32.1600       186
    32.1800       178
    32.2000       190
    32.2200       158
    32.2400       148
    32.2600       154
    32.2800       170
    32.3000       142
    32.3200       116
    32.3400       146
    32.3600       106
    32.3800        98
    32.4000        84
    32.4200       100
    32.4400        82
    32.4600       106
    32.4800        86
    32.5000        74
    32.5200        86
    32.5400       102
    32.5600       118
    32.5800       130
    32.6000       122
    32.6200       136
    32.6400       122
    32.6600       102
    32.6800       134
    32.7000       128
    32.7200        96
    32.7400        90
    32.7600        96
    32.7800        98
    32.8000        86
    32.8200        82
    32.8400        88
    32.8600        90
    32.8800       108
    32.9000       124
    32.9200       112
    32.9400       106
    32.9600       108
    32.9800       114
    33.0000       106
    33.0200        98
    33.0400        96
    33.0600        96
    33.0800        98
    33.1000        92
    33.1200       100
    33.1400        72
    33.1600        76
    33.1800        92
    33.2000        66
    33.2200        84
    33.2400        76
    33.2600        78
    33.2800        82
    33.3000        76
    33.3200        92
    33.3400        68
    33.3600        58
    33.3800        74
    33.4000        68
    33.4200        68
    33.4400        66
    33.4600        76
    33.4800        76
    33.5000        60
    33.5200        58
    33.5400        92
    33.5600        64
    33.5800        52
    33.6000        76
    33.6200        80
    33.6400        90
    33.6600        80
    33.6800       100
    33.7000        86
    33.7200        90
    33.7400        98
    33.7600        90
    33.7800        70
    33.8000        46
    33.8200        60
    33.8400        62
    33.8600        84
    33.8800        62
    33.9000        62
    33.9200        58
    33.9400        72
    33.9600        70
    33.9800        66
    34.0000        84
    34.0200        66
    34.0400        78
    34.0600        56
    34.0800        66
    34.1000        72
    34.1200        86
    34.1400        70
    34.1600        62
    34.1800        86
    34.2000        74
    34.2200        66
    34.2400        78
    34.2600        82
    34.2800        92
    34.3000       102
    34.3200       108
    34.3400        82
    34.3600       120
    34.3800        90
    34.4000       110
    34.4200       102
    34.4400       118
    34.4600       142
    34.4800       100
    34.5000       132
    34.5200       142
    34.5400       150
    34.5600       150
    34.5800       166
    34.6000       164
    34.6200       152
    34.6400       162
    34.6600       194
    34.6800       166
    34.7000       172
    34.7200       174
    34.7400       178
    34.7600       156
    34.7800       148
    34.8000       182
    34.8200       186
    34.8400       186
    34.8600       192
    34.8800       224
    34.9000       238
    34.9200       222
    34.9400       212
    34.9600       206
    34.9800       210
    35.0000       186
    35.0200       150
    35.0400       128
    35.0600       124
    35.0800       120
    35.1000       104
    35.1200       106
    35.1400        98
    35.1600        86
    35.1800       102
    35.2000        88
    35.2200        94
    35.2400        78
    35.2600        84
    35.2800        86
    35.3000        80
    35.3200        84
    35.3400        92
    35.3600        86
    35.3800        76
    35.4000        80
    35.4200        80
    35.4400        74
    35.4600        78
    35.4800        76
    35.5000        60
    35.5200        92
    35.5400        76
    35.5600        86
    35.5800        70
    35.6000        72
    35.6200        76
    35.6400        56
    35.6600        74
    35.6800        78
    35.7000        80
    35.7200        80
    35.7400        94
    35.7600        86
    35.7800       108
    35.8000        98
    35.8200        88
    35.8400        64
    35.8600        66
    35.8800        94
    35.9000        88
    35.9200        86
    35.9400        84
    35.9600       104
    35.9800       100
    36.0000       112
    36.0200       116
    36.0400       116
    36.0600       132
    36.0800       130
    36.1000       116
    36.1200       108
    36.1400       108
    36.1600       114
    36.1800       122
    36.2000       138
    36.2200       132
    36.2400       144
    36.2600       144
    36.2800       194
    36.3000       200
    36.3200       254
    36.3400       256
    36.3600       268
    36.3800       268
    36.4000       212
    36.4200       228
    36.4400       218
    36.4600       184
    36.4800       186
    36.5000       128
    36.5200       128
    36.5400       114
    36.5600       102
    36.5800        94
    36.6000        98
    36.6200        80
    36.6400        76
    36.6600        86
    36.6800        84
    36.7000        86
    36.7200        98
    36.7400       102
    36.7600        96
    36.7800       136
    36.8000       118
    36.8200       122
    36.8400       146
    36.8600       170
    36.8800       186
    36.9000       208
    36.9200       212
    36.9400       186
    36.9600       168
    36.9800       164
    37.0000       136
    37.0200       162
    37.0400       122
    37.0600       138
    37.0800        90
    37.1000        88
    37.1200        92
    37.1400        94
    37.1600        76
    37.1800        84
    37.2000        78
    37.2200        82
    37.2400        80
    37.2600        96
    37.2800        98
    37.3000       112
    37.3200       102
    37.3400       110
    37.3600       108
    37.3800       114
    37.4000       104
    37.4200       122
    37.4400       110
    37.4600       128
    37.4800       106
    37.5000       116
    37.5200       108
    37.5400       110
    37.5600        84
    37.5800       110
    37.6000        86
    37.6200        94
    37.6400       100
    37.6600        96
    37.6800       102
    37.7000       116
    37.7200       108
    37.7400       116
    37.7600        96
    37.7800       106
    37.8000       104
    37.8200        94
    37.8400       116
    37.8600       114
    37.8800       126
    37.9000       118
    37.9200       118
    37.9400       120
    37.9600       150
    37.9800       130
    38.0000       166
    38.0200       154
    38.0400       164
    38.0600       150
    38.0800       154
    38.1000       162
    38.1200       158
    38.1400       130
    38.1600       130
    38.1800       120
    38.2000       126
    38.2200        94
    38.2400        90
    38.2600        84
    38.2800        74
    38.3000        66
    38.3200        72
    38.3400        60
    38.3600        80
    38.3800        50
    38.4000        50
    38.4200        76
    38.4400        68
    38.4600        54
    38.4800        72
    38.5000        68
    38.5200        76
    38.5400        70
    38.5600        64
    38.5800        72
    38.6000        78
    38.6200        94
    38.6400        90
    38.6600        80
    38.6800       104
    38.7000        96
    38.7200        86
    38.7400       112
    38.7600        86
    38.7800        70
    38.8000        86
    38.8200        68
    38.8400        64
    38.8600        64
    38.8800        64
    38.9000        58
    38.9200        52
    38.9400        56
    38.9600        40
    38.9800        56
    39.0000        60
    39.0200        64
    39.0400        62
    39.0600        60
    39.0800        64
    39.1000        66
    39.1200        74
    39.1400       114
    39.1600        88
    39.1800        90
    39.2000       114
    39.2200       168
    39.2400       172
    39.2600       218
    39.2800       190
    39.3000       198
    39.3200       190
    39.3400       194
    39.3600       180
    39.3800       166
    39.4000       152
    39.4200       158
    39.4400       140
    39.4600       124
    39.4800       148
    39.5000       146
    39.5200       188
    39.5400       156
    39.5600       208
    39.5800       188
    39.6000       208
    39.6200       150
    39.6400       142
    39.6600       124
    39.6800       150
    39.7000       128
    39.7200       122
    39.7400       116
    39.7600       108
    39.7800        80
    39.8000       100
    39.8200       102
    39.8400        82
    39.8600        72
    39.8800        92
    39.9000        74
    39.9200        74
    39.9400        82
    39.9600        90
    39.9800       100
    40.0000        78
    40.0200        88
    40.0400       102
    40.0600       110
    40.0800       110
    40.1000       138
    40.1200       122
    40.1400       108
    40.1600       120
    40.1800        88
    40.2000        86
    40.2200       128
    40.2400       100
    40.2600        86
    40.2800        72
    40.3000        88
    40.3200       102
    40.3400        90
    40.3600        88
    40.3800       104
    40.4000       102
    40.4200       108
    40.4400       114
    40.4600        92
    40.4800        88
    40.5000        68
    40.5200        90
    40.5400        62
    40.5600        80
    40.5800        56
    40.6000        60
    40.6200        62
    40.6400        76
    40.6600        66
    40.6800        66
    40.7000        62
    40.7200        60
    40.7400        50
    40.7600        66
    40.7800        54
    40.8000        64
    40.8200        60
    40.8400        50
    40.8600        54
    40.8800        60
    40.9000        62
    40.9200        68
    40.9400        72
    40.9600        60
    40.9800        60
    41.0000        56
    41.0200        52
    41.0400        60
    41.0600        60
    41.0800        68
    41.1000        74
    41.1200        70
    41.1400        80
    41.1600        56
    41.1800        74
    41.2000        66
    41.2200        66
    41.2400        78
    41.2600        74
    41.2800        66
    41.3000        90
    41.3200        68
    41.3400        58
    41.3600        64
    41.3800        50
    41.4000        66
    41.4200        58
    41.4400        74
    41.4600        58
    41.4800        62
    41.5000        54
    41.5200        46
    41.5400        76
    41.5600        58
    41.5800        62
    41.6000        74
    41.6200        52
    41.6400        62
    41.6600        86
    41.6800        78
    41.7000        58
    41.7200        46
    41.7400        58
    41.7600        56
    41.7800        76
    41.8000        64
    41.8200        68
    41.8400        46
    41.8600        62
    41.8800        72
    41.9000        80
    41.9200        64
    41.9400        64
    41.9600        70
    41.9800        68
    42.0000        66
    42.0200        62
    42.0400        80
    42.0600        78
    42.0800       106
    42.1000        96
    42.1200       102
    42.1400       114
    42.1600       118
    42.1800       112
    42.2000       134
    42.2200       134
    42.2400       136
    42.2600       150
    42.2800       150
    42.3000       140
    42.3200       136
    42.3400       130
    42.3600       114
    42.3800        94
    42.4000        98
    42.4200        80
    42.4400        84
    42.4600        78
    42.4800        78
    42.5000        68
    42.5200        68
    42.5400        70
    42.5600        84
    42.5800        64
    42.6000        68
    42.6200        78
    42.6400        70
    42.6600        66
    42.6800        70
    42.7000        48
    42.7200        70
    42.7400        56
    42.7600        62
    42.7800        42
    42.8000        60
    42.8200        66
    42.8400        76
    42.8600        58
    42.8800        48
    42.9000        72
    42.9200        52
    42.9400        60
    42.9600        60
    42.9800        46
    43.0000        56
    43.0200        54
    43.0400        48
    43.0600        64
    43.0800        74
    43.1000        70
    43.1200        48
    43.1400        64
    43.1600        52
    43.1800        64
    43.2000        56
    43.2200        62
    43.2400        72
    43.2600        46
    43.2800        64
    43.3000        56
    43.3200        60
    43.3400        54
    43.3600        52
    43.3800        54
    43.4000        58
    43.4200        76
    43.4400        64
    43.4600        50
    43.4800        48
    43.5000        58
    43.5200        64
    43.5400        58
    43.5600        46
    43.5800        54
    43.6000        62
    43.6200        52
    43.6400        58
    43.6600        42
    43.6800        44
    43.7000        60
    43.7200        52
    43.7400        42
    43.7600        54
    43.7800        52
    43.8000        40
    43.8200        48
    43.8400        42
    43.8600        40
    43.8800        42
    43.9000        50
    43.9200        52
    43.9400        50
    43.9600        68
    43.9800        52
    44.0000        52
    44.0200        58
    44.0400        68
    44.0600        62
    44.0800        58
    44.1000        50
    44.1200        48
    44.1400        54
    44.1600        42
    44.1800        54
    44.2000        48
    44.2200        58
    44.2400        46
    44.2600        50
    44.2800        46
    44.3000        40
    44.3200        46
    44.3400        50
    44.3600        42
    44.3800        50
    44.4000        46
    44.4200        40
    44.4400        40
    44.4600        50
    44.4800        58
    44.5000        44
    44.5200        42
    44.5400        52
    44.5600        54
    44.5800        48
    44.6000        56
    44.6200        54
    44.6400        48
    44.6600        58
    44.6800        52
    44.7000        44
    44.7200        62
    44.7400        54
    44.7600        54
    44.7800        46
    44.8000        52
    44.8200        50
    44.8400        60
    44.8600        64
    44.8800        62
    44.9000        48
    44.9200        48
    44.9400        76
    44.9600        54
    44.9800        56
    45.0000        54
    45.0200        60
    45.0400        58
    45.0600        80
    45.0800        68
    45.1000        78
    45.1200        64
    45.1400        66
    45.1600        74
    45.1800        78
    45.2000        66
    45.2200        68
    45.2400        72
    45.2600        64
    45.2800        62
    45.3000        78
    45.3200        80
    45.3400        66
    45.3600        72
    45.3800        68
    45.4000        66
    45.4200        62
    45.4400        62
    45.4600        72
    45.4800        54
    45.5000        90
    45.5200        88
    45.5400        76
    45.5600        94
    45.5800        96
    45.6000       110
    45.6200        96
    45.6400       106
    45.6600       116
    45.6800       102
    45.7000        98
    45.7200       106
    45.7400        86
    45.7600       100
    45.7800       128
    45.8000        96
    45.8200       100
    45.8400        92
    45.8600        96
    45.8800       100
    45.9000        96
    45.9200       112
    45.9400       112
    45.9600       112
    45.9800       120
    46.0000       100
    46.0200       106
    46.0400       108
    46.0600        88
    46.0800       108
    46.1000       100
    46.1200        72
    46.1400        92
    46.1600        86
    46.1800        76
    46.2000        78
    46.2200        62
    46.2400        66
    46.2600        60
    46.2800        68
    46.3000        54
    46.3200        62
    46.3400        60
    46.3600        46
    46.3800        52
    46.4000        48
    46.4200        54
    46.4400        40
    46.4600        56
    46.4800        48
    46.5000        54
    46.5200        44
    46.5400        52
    46.5600        48
    46.5800        56
    46.6000        60
    46.6200        46
    46.6400        80
    46.6600        52
    46.6800        66
    46.7000        76
    46.7200        96
    46.7400        78
    46.7600       102
    46.7800        72
    46.8000        78
    46.8200        82
    46.8400        80
    46.8600        68
    46.8800        80
    46.9000        74
    46.9200        66
    46.9400        58
    46.9600        66
    46.9800        48
    47.0000        54
    47.0200        42
    47.0400        30
    47.0600        42
    47.0800        54
    47.1000        62
    47.1200        44
    47.1400        26
    47.1600        46
    47.1800        44
    47.2000        48
    47.2200        36
    47.2400        62
    47.2600        48
    47.2800        48
    47.3000        42
    47.3200        52
    47.3400        42
    47.3600        54
    47.3800        66
    47.4000        44
    47.4200        54
    47.4400        66
    47.4600        68
    47.4800        64
    47.5000        66
    47.5200        70
    47.5400        62
    47.5600        54
    47.5800        48
    47.6000        58
    47.6200        66
    47.6400        50
    47.6600        58
    47.6800        62
    47.7000        64
    47.7200        52
    47.7400        60
    47.7600        46
    47.7800        66
    47.8000        64
    47.8200        70
    47.8400        60
    47.8600        56
    47.8800        72
    47.9000        44
    47.9200        36
    47.9400        54
    47.9600        58
    47.9800        60
    48.0000        66
    48.0200        50
    48.0400        56
    48.0600        58
    48.0800        64
    48.1000        70
    48.1200        50
    48.1400        66
    48.1600        58
    48.1800        78
    48.2000        70
    48.2200        64
    48.2400        90
    48.2600       100
    48.2800       104
    48.3000        90
    48.3200       102
    48.3400       102
    48.3600        72
    48.3800        86
    48.4000        82
    48.4200        84
    48.4400        76
    48.4600        62
    48.4800        84
    48.5000        78
    48.5200        60
    48.5400        76
    48.5600        84
    48.5800        78
    48.6000        82
    48.6200        70
    48.6400        68
    48.6600        74
    48.6800        80
    48.7000        58
    48.7200        58
    48.7400        58
    48.7600        56
    48.7800        56
    48.8000        56
    48.8200        58
    48.8400        44
    48.8600        52
    48.8800        50
    48.9000        44
    48.9200        50
    48.9400        38
    48.9600        44
    48.9800        58
    49.0000        30
    49.0200        56
    49.0400        48
    49.0600        52
    49.0800        56
    49.1000        52
    49.1200        48
    49.1400        50
    49.1600        40
    49.1800        44
    49.2000        62
    49.2200        54
    49.2400        56
    49.2600        46
    49.2800        56
    49.3000        46
    49.3200        58
    49.3400        42
    49.3600        46
    49.3800        62
    49.4000        48
    49.4200        48
    49.4400        64
    49.4600        58
    49.4800        36
    49.5000        58
    49.5200        60
    49.5400        42
    49.5600        60
    49.5800        48
    49.6000        70
    49.6200        54
    49.6400        56
    49.6600        58
    49.6800        64
    49.7000        60
    49.7200        60
    49.7400        66
    49.7600        64
    49.7800        70
    49.8000        98
    49.8200        90
    49.8400       118
    49.8600       158
    49.8800       176
    49.9000       204
    49.9200       232
    49.9400       242
    49.9600       252
    49.9800       262
    50.0000       238
    50.0200       194
    50.0400       188
    50.0600       166
    50.0800       156
    50.1000       160
    50.1200       130
    50.1400       112
    50.1600        90
    50.1800        90
    50.2000        82
    50.2200        74
    50.2400        80
    50.2600        72
    50.2800        76
    50.3000        88
    50.3200        62
    50.3400        72
    50.3600        70
    50.3800        70
    50.4000        72
    50.4200        80
    50.4400        62
    50.4600       100
    50.4800       114
    50.5000       100
    50.5200        94
    50.5400       110
    50.5600       122
    50.5800       132
    50.6000       108
    50.6200       132
    50.6400       104
    50.6600       108
    50.6800       102
    50.7000       106
    50.7200        98
    50.7400        78
    50.7600        98
    50.7800        68
    50.8000        90
    50.8200        74
    50.8400        72
    50.8600        66
    50.8800        82
    50.9000        62
    50.9200        50
    50.9400        50
    50.9600        56
    50.9800        60
    51.0000        82
    51.0200        70
    51.0400        52
    51.0600        70
    51.0800        60
    51.1000        66
    51.1200        64
    51.1400        54
    51.1600        64
    51.1800        66
    51.2000        70
    51.2200        72
    51.2400        68
    51.2600        48
    51.2800        50
    51.3000        54
    51.3200        64
    51.3400        58
    51.3600        46
    51.3800        46
    51.4000        58
    51.4200        56
    51.4400        56
    51.4600        56
    51.4800        66
    51.5000        70
    51.5200        48
    51.5400        60
    51.5600        42
    51.5800        58
    51.6000        48
    51.6200        40
    51.6400        40
    51.6600        48
    51.6800        40
    51.7000        62
    51.7200        44
    51.7400        40
    51.7600        36
    51.7800        52
    51.8000        50
    51.8200        54
    51.8400        52
    51.8600        72
    51.8800        46
    51.9000        60
    51.9200        54
    51.9400        58
    51.9600        48
    51.9800        58
    52.0000        72
    52.0200        56
    52.0400        72
    52.0600        68
    52.0800        80
    52.1000        74
    52.1200        46
    52.1400        60
    52.1600        50
    52.1800        58
    52.2000        50
    52.2200        56
    52.2400        58
    52.2600        52
    52.2800        56
    52.3000        58
    52.3200        50
    52.3400        80
    52.3600        56
    52.3800        72
    52.4000        70
    52.4200        68
    52.4400        72
    52.4600        76
    52.4800        68
    52.5000        50
    52.5200        62
    52.5400        60
    52.5600        52
    52.5800        58
    52.6000        44
    52.6200        52
    52.6400        56
    52.6600        50
    52.6800        26
    52.7000        52
    52.7200        40
    52.7400        48
    52.7600        54
    52.7800        50
    52.8000        46
    52.8200        50
    52.8400        50
    52.8600        54
    52.8800        42
    52.9000        58
    52.9200        54
    52.9400        60
    52.9600        70
    52.9800        80
    53.0000        66
    53.0200        78
    53.0400        96
    53.0600        80
    53.0800       110
    53.1000        98
    53.1200       102
    53.1400        96
    53.1600        74
    53.1800        74
    53.2000        64
    53.2200        88
    53.2400        86
    53.2600        74
    53.2800        72
    53.3000        58
    53.3200        54
    53.3400        56
    53.3600        44
    53.3800        60
    53.4000        60
    53.4200        56
    53.4400        56
    53.4600        62
    53.4800        52
    53.5000        46
    53.5200        50
    53.5400        58
    53.5600        56
    53.5800        52
    53.6000        68
    53.6200        50
    53.6400        64
    53.6600        68
    53.6800        44
    53.7000        60
    53.7200        54
    53.7400        58
    53.7600        48
    53.7800        72
    53.8000        50
    53.8200        68
    53.8400        74
    53.8600        42
    53.8800        58
    53.9000        64
    53.9200        56
    53.9400        54
    53.9600        58
    53.9800        50
    54.0000        56
    54.0200        58
    54.0400        40
    54.0600        60
    54.0800        54
    54.1000        58
    54.1200        48
    54.1400        52
    54.1600        32
    54.1800        54
    54.2000        50
    54.2200        60
    54.2400        58
    54.2600        56
    54.2800        56
    54.3000        42
    54.3200        68
    54.3400        60
    54.3600        56
    54.3800        42
    54.4000        48
    54.4200        60
    54.4400        66
    54.4600        58
    54.4800        58
    54.5000        64
    54.5200        70
    54.5400        74
    54.5600        76
    54.5800        86
    54.6000        86
    54.6200        98
    54.6400       100
    54.6600       110
    54.6800        80
    54.7000       120
    54.7200       104
    54.7400       102
    54.7600        96
    54.7800        92
    54.8000        96
    54.8200        92
    54.8400        90
    54.8600        82
    54.8800        82
    54.9000        78
    54.9200        72
    54.9400        82
    54.9600        88
    54.9800        94
    55.0000       106
    55.0200        80
    55.0400       106
    55.0600        72
    55.0800        96
    55.1000       112
    55.1200        94
    55.1400        92
    55.1600        92
    55.1800        98
    55.2000        98
    55.2200       122
    55.2400       102
    55.2600        90
    55.2800       104
    55.3000       106
    55.3200        98
    55.3400        78
    55.3600        90
    55.3800        96
    55.4000        70
    55.4200        70
    55.4400        70
    55.4600        84
    55.4800        92
    55.5000        60
    55.5200        64
    55.5400        58
    55.5600        70
    55.5800        74
    55.6000        70
    55.6200        82
    55.6400        80
    55.6600        80
    55.6800        74
    55.7000        70
    55.7200        86
    55.7400        90
    55.7600        66
    55.7800        88
    55.8000        84
    55.8200        64
    55.8400        66
    55.8600        56
    55.8800        68
    55.9000        76
    55.9200        58
    55.9400        72
    55.9600        64
    55.9800        82
    56.0000        64
    56.0200        92
    56.0400       108
    56.0600       102
    56.0800       108
    56.1000       104
    56.1200       106
    56.1400        98
    56.1600        82
    56.1800        72
    56.2000        72
    56.2200        68
    56.2400        70
    56.2600        72
    56.2800        54
    56.3000        64
    56.3200        74
    56.3400        64
    56.3600        72
    56.3800        64
    56.4000        52
    56.4200        42
    56.4400        60
    56.4600        64
    56.4800        54
    56.5000        54
    56.5200        50
    56.5400        56
    56.5600        56
    56.5800        54
    56.6000        46
    56.6200        38
    56.6400        58
    56.6600        60
    56.6800        44
    56.7000        46
    56.7200        42
    56.7400        48
    56.7600        46
    56.7800        54
    56.8000        46
    56.8200        44
    56.8400        44
    56.8600        42
    56.8800        42
    56.9000        42
    56.9200        52
    56.9400        44
    56.9600        58
    56.9800        48
    57.0000        46
    57.0200        60
    57.0400        46
    57.0600        44
    57.0800        54
    57.1000        36
    57.1200        56
    57.1400        50
    57.1600        48
    57.1800        54
    57.2000        54
    57.2200        76
    57.2400        56
    57.2600        48
    57.2800        62
    57.3000        64
    57.3200        68
    57.3400        46
    57.3600        68
    57.3800        60
    57.4000        60
    57.4200        52
    57.4400        48
    57.4600        56
    57.4800        58
    57.5000        46
    57.5200        50
    57.5400        30
    57.5600        50
    57.5800        48
    57.6000        42
    57.6200        50
    57.6400        56
    57.6600        40
    57.6800        58
    57.7000        50
    57.7200        52
    57.7400        42
    57.7600        62
    57.7800        62
    57.8000        60
    57.8200        50
    57.8400        60
    57.8600        58
    57.8800        62
    57.9000        62
    57.9200        62
    57.9400        76
    57.9600        68
    57.9800        84
    58.0000        50
    58.0200        62
    58.0400        82
    58.0600        48
    58.0800        54
    58.1000        60
    58.1200        50
    58.1400        52
    58.1600        50
    58.1800        60
    58.2000        58
    58.2200        40
    58.2400        40
    58.2600        56
    58.2800        46
    58.3000        48
    58.3200        56
    58.3400        52
    58.3600        64
    58.3800        56
    58.4000        52
    58.4200        58
    58.4400        52
    58.4600        56
    58.4800        70
    58.5000        78
    58.5200        62
    58.5400        66
    58.5600        64
    58.5800        70
    58.6000        62
    58.6200        48
    58.6400        66
    58.6600        56
    58.6800        66
    58.7000        58
    58.7200        56
    58.7400        66
    58.7600        66
    58.7800        56
    58.8000        46
    58.8200        58
    58.8400        52
    58.8600        62
    58.8800        44
    58.9000        60
    58.9200        80
    58.9400        64
    58.9600        54
    58.9800        62
    59.0000        56
    59.0200        66
    59.0400        62
    59.0600        72
    59.0800        74
    59.1000        54
    59.1200        62
    59.1400        66
    59.1600        68
    59.1800        58
    59.2000        76
    59.2200        64
    59.2400        76
    59.2600        46
    59.2800        54
    59.3000        40
    59.3200        38
    59.3400        74
    59.3600        54
    59.3800        40
    59.4000        56
    59.4200        52
    59.4400        56
    59.4600        54
    59.4800        56
    59.5000        56
    59.5200        60
    59.5400        60
    59.5600        60
    59.5800        44
    59.6000        68
    59.6200        70
    59.6400        76
    59.6600        96
    59.6800       102
    59.7000       140
    59.7200       168
    59.7400       184
    59.7600       198
    59.7800       208
    59.8000       212
    59.8200       202
    59.8400       164
    59.8600       146
    59.8800       140
    59.9000       138
    59.9200       120
    59.9400       140
    59.9600       126
    59.9800       126
    60.0000       112
    60.0200        90
    60.0400        70
    60.0600       102
    60.0800        88
    60.1000        88
    60.1200        78
    60.1400        72
    60.1600        70
    60.1800        64
    60.2000        58
    60.2200        78
    60.2400        62
    60.2600        62
    60.2800        54
    60.3000        64
    60.3200        64
    60.3400        56
    60.3600        62
    60.3800        44
    60.4000        38
    60.4200        52
    60.4400        52
    60.4600        52
    60.4800        52
    60.5000        54
    60.5200        74
    60.5400        52
    60.5600        50
    60.5800        54
    60.6000        52
    60.6200        56
    60.6400        42
    60.6600        50
    60.6800        62
    60.7000        56
    60.7200        42
    60.7400        56
    60.7600        64
    60.7800        54
    60.8000        62
    60.8200        62
    60.8400        48
    60.8600        58
    60.8800        50
    60.9000        64
    60.9200        56
    60.9400        60
    60.9600        70
    60.9800        68
    61.0000        64
    61.0200        82
    61.0400       100
    61.0600        90
    61.0800        82
    61.1000        92
    61.1200        80
    61.1400        92
    61.1600        94
    61.1800        92
    61.2000       116
    61.2200       104
    61.2400       126
    61.2600       116
    61.2800       108
    61.3000       104
    61.3200        94
    61.3400       106
    61.3600        96
    61.3800        98
    61.4000        84
    61.4200       104
    61.4400        90
    61.4600        96
    61.4800       102
    61.5000        80
    61.5200        82
    61.5400        80
    61.5600        98
    61.5800        84
    61.6000        70
    61.6200        76
    61.6400        98
    61.6600        78
    61.6800        88
    61.7000        68
    61.7200        72
    61.7400        68
    61.7600        70
    61.7800        72
    61.8000        70
    61.8200        82
    61.8400        82
    61.8600        66
    61.8800        54
    61.9000        66
    61.9200        84
    61.9400        80
    61.9600        66
    61.9800        62
    62.0000        62
    62.0200        64
    62.0400        72
    62.0600        76
    62.0800        74
    62.1000        72
    62.1200        70
    62.1400        68
    62.1600        80
    62.1800        92
    62.2000        56
    62.2200        78
    62.2400        62
    62.2600        62
    62.2800        72
    62.3000        60
    62.3200        68
    62.3400        62
    62.3600        72
    62.3800        60
    62.4000        78
    62.4200        56
    62.4400        46
    62.4600        50
    62.4800        48
    62.5000        44
    62.5200        52
    62.5400        44
    62.5600        62
    62.5800        54
    62.6000        52
    62.6200        56
    62.6400        56
    62.6600        46
    62.6800        56
    62.7000        60
    62.7200        62
    62.7400        48
    62.7600        58
    62.7800        52
    62.8000        56
    62.8200        68
    62.8400        50
    62.8600        56
    62.8800        54
    62.9000        46
    62.9200        62
    62.9400        48
    62.9600        50
    62.9800        52
    63.0000        56
    63.0200        44
    63.0400        56
    63.0600        52
    63.0800        38
    63.1000        48
    63.1200        44
    63.1400        48
    63.1600        34
    63.1800        34
    63.2000        52
    63.2200        56
    63.2400        62
    63.2600        44
    63.2800        72
    63.3000        52
    63.3200        50
    63.3400        58
    63.3600        60
    63.3800        44
    63.4000        42
    63.4200        42
    63.4400        60
    63.4600        52
    63.4800        56
    63.5000        60
    63.5200        46
    63.5400        64
    63.5600        66
    63.5800        54
    63.6000        50
    63.6200        58
    63.6400        52
    63.6600        70
    63.6800        64
    63.7000        66
    63.7200        58
    63.7400        74
    63.7600        52
    63.7800        60
    63.8000        80
    63.8200        82
    63.8400        86
    63.8600        88
    63.8800       108
    63.9000        84
    63.9200        88
    63.9400        74
    63.9600        76
    63.9800        68
    64.0000        86
    64.0200        88
    64.0400        80
    64.0600       106
    64.0800       100
    64.1000        88
    64.1200        90
    64.1400       110
    64.1600        88
    64.1800        72
    64.2000        72
    64.2200        68
    64.2400        72
    64.2600        74
    64.2800        72
    64.3000        82
    64.3200        56
    64.3400        62
    64.3600        56
    64.3800        54
    64.4000        62
    64.4200        62
    64.4400        46
    64.4600        66
    64.4800        54
    64.5000        60
    64.5200        56
    64.5400        52
    64.5600        54
    64.5800        42
    64.6000        48
    64.6200        44
    64.6400        54
    64.6600        48
    64.6800        50
    64.7000        44
    64.7200        64
    64.7400        38
    64.7600        68
    64.7800        48
    64.8000        58
    64.8200        50
    64.8400        46
    64.8600        58
    64.8800        46
    64.9000        50
    64.9200        48
    64.9400        30
    64.9600        48
    64.9800        44
    65.0000        48
