/////////////////////////////////////////////////////////////////////////////////
/// Profile Data Ascii Dump (XRD)                                             ///
/////////////////////////////////////////////////////////////////////////////////

  Group     : Swayze
  Data      : No 197 1B
  File Name : No 197 1B.RAW

# Profile Datafile
          comment             = Chlorite 
          date & time         = 08-03-13 06:21:52 

# Measurement Condition
    X-ray tube
          target              = Cu 
          voltage             = 40.0 (kV)
          current             = 30.0 (mA)
    Slits
          divergence slit     = 2.00000 (deg) 
          scatter slit        = 2.00000 (deg) 
          receiving slit      = 0.15000 (mm)  
    Scanning
          drive axis          = Theta-2Theta 
          scan range          =    4.000 -   65.000 
          scan mode           = Continuous Scan 
          scan speed          =   2.0000 (deg/min) 
          sampling pitch      =   0.0200 (deg) 
          preset time         =   0.60 (sec) 

# Data      [ Total No. = 3051 ]
  <2Theta>   <   I   >
     4.0000       180
     4.0200       198
     4.0400       190
     4.0600       196
     4.0800       194
     4.1000       194
     4.1200       182
     4.1400       210
     4.1600       208
     4.1800       218
     4.2000       174
     4.2200       194
     4.2400       170
     4.2600       202
     4.2800       202
     4.3000       188
     4.3200       158
     4.3400       208
     4.3600       194
     4.3800       194
     4.4000       186
     4.4200       190
     4.4400       176
     4.4600       184
     4.4800       204
     4.5000       182
     4.5200       186
     4.5400       188
     4.5600       172
     4.5800       168
     4.6000       172
     4.6200       200
     4.6400       172
     4.6600       184
     4.6800       168
     4.7000       170
     4.7200       182
     4.7400       196
     4.7600       192
     4.7800       192
     4.8000       160
     4.8200       164
     4.8400       192
     4.8600       172
     4.8800       158
     4.9000       158
     4.9200       158
     4.9400       184
     4.9600       188
     4.9800       152
     5.0000       166
     5.0200       176
     5.0400       168
     5.0600       188
     5.0800       182
     5.1000       182
     5.1200       196
     5.1400       184
     5.1600       178
     5.1800       234
     5.2000       172
     5.2200       206
     5.2400       186
     5.2600       188
     5.2800       202
     5.3000       186
     5.3200       194
     5.3400       200
     5.3600       210
     5.3800       186
     5.4000       210
     5.4200       190
     5.4400       192
     5.4600       212
     5.4800       224
     5.5000       208
     5.5200       210
     5.5400       212
     5.5600       202
     5.5800       210
     5.6000       236
     5.6200       230
     5.6400       228
     5.6600       202
     5.6800       232
     5.7000       238
     5.7200       258
     5.7400       254
     5.7600       232
     5.7800       256
     5.8000       292
     5.8200       250
     5.8400       244
     5.8600       276
     5.8800       276
     5.9000       312
     5.9200       312
     5.9400       338
     5.9600       320
     5.9800       352
     6.0000       388
     6.0200       382
     6.0400       466
     6.0600       476
     6.0800       516
     6.1000       610
     6.1200       528
     6.1400       524
     6.1600       486
     6.1800       366
     6.2000       286
     6.2200       244
     6.2400       202
     6.2600       198
     6.2800       186
     6.3000       198
     6.3200       196
     6.3400       166
     6.3600       176
     6.3800       168
     6.4000       174
     6.4200       160
     6.4400       166
     6.4600       152
     6.4800       166
     6.5000       122
     6.5200       158
     6.5400       170
     6.5600       142
     6.5800       134
     6.6000       166
     6.6200       148
     6.6400       142
     6.6600       154
     6.6800       162
     6.7000       140
     6.7200       138
     6.7400       142
     6.7600       130
     6.7800       140
     6.8000       136
     6.8200       144
     6.8400       140
     6.8600       136
     6.8800       132
     6.9000       144
     6.9200       132
     6.9400       138
     6.9600       104
     6.9800       126
     7.0000       122
     7.0200       124
     7.0400       134
     7.0600       132
     7.0800       150
     7.1000       138
     7.1200       130
     7.1400       132
     7.1600       122
     7.1800       130
     7.2000       128
     7.2200       142
     7.2400       124
     7.2600       140
     7.2800       162
     7.3000       124
     7.3200       134
     7.3400       132
     7.3600       120
     7.3800       142
     7.4000       126
     7.4200       126
     7.4400       120
     7.4600       152
     7.4800       122
     7.5000       118
     7.5200       140
     7.5400       122
     7.5600       102
     7.5800       128
     7.6000       124
     7.6200       120
     7.6400       114
     7.6600       122
     7.6800       116
     7.7000       110
     7.7200       116
     7.7400       100
     7.7600       124
     7.7800       136
     7.8000       120
     7.8200       120
     7.8400       130
     7.8600       104
     7.8800       120
     7.9000       106
     7.9200       112
     7.9400       110
     7.9600       132
     7.9800       124
     8.0000       108
     8.0200       136
     8.0400       140
     8.0600       134
     8.0800       106
     8.1000        98
     8.1200       118
     8.1400       120
     8.1600       142
     8.1800       124
     8.2000       144
     8.2200       126
     8.2400       114
     8.2600       132
     8.2800       114
     8.3000       128
     8.3200       106
     8.3400       104
     8.3600       122
     8.3800       118
     8.4000       118
     8.4200       122
     8.4400       138
     8.4600       120
     8.4800       134
     8.5000       120
     8.5200       126
     8.5400       124
     8.5600       124
     8.5800       132
     8.6000       144
     8.6200       124
     8.6400       132
     8.6600       116
     8.6800       132
     8.7000       128
     8.7200       142
     8.7400       130
     8.7600       132
     8.7800       108
     8.8000       110
     8.8200       150
     8.8400       128
     8.8600       124
     8.8800       120
     8.9000       128
     8.9200       114
     8.9400       130
     8.9600       122
     8.9800       138
     9.0000       130
     9.0200       138
     9.0400       120
     9.0600       114
     9.0800       134
     9.1000       118
     9.1200       118
     9.1400       140
     9.1600       118
     9.1800       114
     9.2000       110
     9.2200       122
     9.2400       108
     9.2600       126
     9.2800       116
     9.3000       146
     9.3200       118
     9.3400       124
     9.3600       136
     9.3800       126
     9.4000       124
     9.4200       132
     9.4400       122
     9.4600       114
     9.4800       124
     9.5000       140
     9.5200       120
     9.5400       150
     9.5600       114
     9.5800       120
     9.6000       156
     9.6200       162
     9.6400       178
     9.6600       196
     9.6800       180
     9.7000       184
     9.7200       156
     9.7400       158
     9.7600       208
     9.7800       224
     9.8000       214
     9.8200       186
     9.8400       190
     9.8600       152
     9.8800       128
     9.9000       148
     9.9200       126
     9.9400       124
     9.9600       132
     9.9800       114
    10.0000       134
    10.0200       108
    10.0400       118
    10.0600       108
    10.0800       132
    10.1000       118
    10.1200       136
    10.1400       118
    10.1600       104
    10.1800       112
    10.2000       126
    10.2200       122
    10.2400       136
    10.2600       106
    10.2800       116
    10.3000       102
    10.3200       116
    10.3400       108
    10.3600       120
    10.3800       116
    10.4000       126
    10.4200       100
    10.4400        90
    10.4600       108
    10.4800        94
    10.5000       114
    10.5200        98
    10.5400       114
    10.5600       112
    10.5800       110
    10.6000       112
    10.6200        90
    10.6400        92
    10.6600        94
    10.6800       112
    10.7000       104
    10.7200       108
    10.7400       108
    10.7600       112
    10.7800       102
    10.8000       112
    10.8200       144
    10.8400       102
    10.8600       114
    10.8800       116
    10.9000        82
    10.9200        88
    10.9400       104
    10.9600       106
    10.9800        96
    11.0000       110
    11.0200       108
    11.0400       100
    11.0600        98
    11.0800        94
    11.1000        88
    11.1200       100
    11.1400       100
    11.1600        98
    11.1800       112
    11.2000       108
    11.2200       110
    11.2400       112
    11.2600        96
    11.2800       124
    11.3000       128
    11.3200       120
    11.3400       106
    11.3600        90
    11.3800       124
    11.4000        92
    11.4200       104
    11.4400       124
    11.4600       116
    11.4800       106
    11.5000       116
    11.5200       126
    11.5400       102
    11.5600       106
    11.5800       122
    11.6000        98
    11.6200       118
    11.6400       124
    11.6600       114
    11.6800       126
    11.7000       138
    11.7200       124
    11.7400       130
    11.7600       162
    11.7800       120
    11.8000       136
    11.8200       144
    11.8400       162
    11.8600       138
    11.8800       148
    11.9000       170
    11.9200       162
    11.9400       186
    11.9600       190
    11.9800       182
    12.0000       218
    12.0200       222
    12.0400       268
    12.0600       244
    12.0800       254
    12.1000       286
    12.1200       316
    12.1400       336
    12.1600       384
    12.1800       442
    12.2000       444
    12.2200       482
    12.2400       604
    12.2600       668
    12.2800       738
    12.3000       824
    12.3200       846
    12.3400       880
    12.3600       860
    12.3800       786
    12.4000       602
    12.4200       468
    12.4400       384
    12.4600       296
    12.4800       228
    12.5000       174
    12.5200       154
    12.5400       160
    12.5600       142
    12.5800       140
    12.6000       108
    12.6200       140
    12.6400       126
    12.6600       118
    12.6800       102
    12.7000        90
    12.7200       118
    12.7400        96
    12.7600       106
    12.7800        92
    12.8000       102
    12.8200       102
    12.8400        92
    12.8600        80
    12.8800        96
    12.9000        98
    12.9200        82
    12.9400        84
    12.9600        82
    12.9800       106
    13.0000       100
    13.0200        94
    13.0400        70
    13.0600        80
    13.0800        72
    13.1000        86
    13.1200        78
    13.1400        64
    13.1600        78
    13.1800        88
    13.2000        80
    13.2200        86
    13.2400        62
    13.2600        76
    13.2800        84
    13.3000        66
    13.3200        82
    13.3400        98
    13.3600        70
    13.3800        68
    13.4000        80
    13.4200        78
    13.4400        70
    13.4600        94
    13.4800       100
    13.5000        84
    13.5200        76
    13.5400        86
    13.5600        96
    13.5800        94
    13.6000        84
    13.6200        70
    13.6400        78
    13.6600        94
    13.6800        80
    13.7000        78
    13.7200        78
    13.7400        76
    13.7600        62
    13.7800        82
    13.8000        88
    13.8200        78
    13.8400        80
    13.8600        60
    13.8800        78
    13.9000        82
    13.9200        68
    13.9400        80
    13.9600        66
    13.9800        72
    14.0000        74
    14.0200        78
    14.0400        70
    14.0600        70
    14.0800        80
    14.1000        76
    14.1200        78
    14.1400        78
    14.1600        68
    14.1800        76
    14.2000        64
    14.2200        76
    14.2400        88
    14.2600        68
    14.2800        70
    14.3000        82
    14.3200        70
    14.3400        70
    14.3600        68
    14.3800        76
    14.4000        80
    14.4200        82
    14.4400        74
    14.4600        66
    14.4800        76
    14.5000        76
    14.5200        66
    14.5400        86
    14.5600        78
    14.5800        76
    14.6000        80
    14.6200        70
    14.6400        66
    14.6600        62
    14.6800        84
    14.7000        56
    14.7200        86
    14.7400        72
    14.7600        60
    14.7800        80
    14.8000        48
    14.8200        52
    14.8400        60
    14.8600        72
    14.8800        80
    14.9000        90
    14.9200        48
    14.9400        64
    14.9600        72
    14.9800        68
    15.0000        78
    15.0200        62
    15.0400        64
    15.0600        70
    15.0800        74
    15.1000        96
    15.1200        84
    15.1400        64
    15.1600        50
    15.1800        76
    15.2000        66
    15.2200        62
    15.2400        80
    15.2600        68
    15.2800        76
    15.3000        70
    15.3200        72
    15.3400        66
    15.3600        62
    15.3800        60
    15.4000        64
    15.4200        70
    15.4400        68
    15.4600        88
    15.4800        58
    15.5000        62
    15.5200        74
    15.5400        70
    15.5600        64
    15.5800        76
    15.6000        76
    15.6200        70
    15.6400        62
    15.6600        80
    15.6800        58
    15.7000        70
    15.7200        78
    15.7400        64
    15.7600        82
    15.7800        64
    15.8000        62
    15.8200        76
    15.8400        50
    15.8600        58
    15.8800        66
    15.9000        66
    15.9200        72
    15.9400        58
    15.9600        68
    15.9800        76
    16.0000        66
    16.0200        72
    16.0400        56
    16.0600        66
    16.0800        80
    16.1000        86
    16.1200        56
    16.1400        80
    16.1600        82
    16.1800        68
    16.2000        66
    16.2200        62
    16.2400        66
    16.2600        52
    16.2800        56
    16.3000        66
    16.3200        72
    16.3400        80
    16.3600        66
    16.3800        76
    16.4000        56
    16.4200        68
    16.4400        70
    16.4600        84
    16.4800        82
    16.5000        68
    16.5200        68
    16.5400        84
    16.5600        76
    16.5800        64
    16.6000        64
    16.6200        68
    16.6400        64
    16.6600        74
    16.6800        80
    16.7000        66
    16.7200        68
    16.7400        66
    16.7600        60
    16.7800        54
    16.8000        70
    16.8200        70
    16.8400        82
    16.8600        66
    16.8800        78
    16.9000        80
    16.9200        46
    16.9400        62
    16.9600        68
    16.9800        74
    17.0000        58
    17.0200        52
    17.0400        64
    17.0600        72
    17.0800        62
    17.1000        74
    17.1200        68
    17.1400        62
    17.1600        56
    17.1800        60
    17.2000        66
    17.2200        66
    17.2400        86
    17.2600        56
    17.2800        58
    17.3000        74
    17.3200        74
    17.3400        68
    17.3600        76
    17.3800        70
    17.4000        72
    17.4200        78
    17.4400        64
    17.4600        64
    17.4800        74
    17.5000        74
    17.5200        78
    17.5400        66
    17.5600        58
    17.5800        74
    17.6000        78
    17.6200        66
    17.6400        84
    17.6600        68
    17.6800        56
    17.7000        78
    17.7200        80
    17.7400        90
    17.7600        72
    17.7800        70
    17.8000        76
    17.8200        58
    17.8400       104
    17.8600        82
    17.8800        78
    17.9000        72
    17.9200        60
    17.9400        82
    17.9600        66
    17.9800        72
    18.0000        72
    18.0200        84
    18.0400        70
    18.0600        90
    18.0800       106
    18.1000        88
    18.1200        84
    18.1400       102
    18.1600       110
    18.1800       102
    18.2000       116
    18.2200       132
    18.2400       134
    18.2600       134
    18.2800       134
    18.3000       192
    18.3200       154
    18.3400       192
    18.3600       186
    18.3800       232
    18.4000       278
    18.4200       248
    18.4400       328
    18.4600       352
    18.4800       396
    18.5000       496
    18.5200       532
    18.5400       660
    18.5600       698
    18.5800       724
    18.6000       712
    18.6200       742
    18.6400       666
    18.6600       604
    18.6800       468
    18.7000       362
    18.7200       294
    18.7400       274
    18.7600       194
    18.7800       186
    18.8000       164
    18.8200       162
    18.8400       134
    18.8600       128
    18.8800       144
    18.9000       122
    18.9200       130
    18.9400       130
    18.9600       136
    18.9800       138
    19.0000       172
    19.0200       192
    19.0400       214
    19.0600       242
    19.0800       236
    19.1000       252
    19.1200       284
    19.1400       258
    19.1600       252
    19.1800       264
    19.2000       270
    19.2200       232
    19.2400       210
    19.2600       242
    19.2800       188
    19.3000       210
    19.3200       222
    19.3400       186
    19.3600       194
    19.3800       198
    19.4000       190
    19.4200       180
    19.4400       162
    19.4600       166
    19.4800       156
    19.5000       174
    19.5200       158
    19.5400       166
    19.5600       158
    19.5800       138
    19.6000       162
    19.6200       138
    19.6400       164
    19.6600       152
    19.6800       148
    19.7000       142
    19.7200       150
    19.7400       142
    19.7600       136
    19.7800       130
    19.8000       136
    19.8200       144
    19.8400       138
    19.8600       134
    19.8800       140
    19.9000       136
    19.9200       142
    19.9400       122
    19.9600       142
    19.9800       142
    20.0000       132
    20.0200       120
    20.0400       116
    20.0600       100
    20.0800       124
    20.1000       126
    20.1200       116
    20.1400       138
    20.1600       142
    20.1800       122
    20.2000       126
    20.2200       150
    20.2400       108
    20.2600       142
    20.2800        94
    20.3000       130
    20.3200       124
    20.3400       110
    20.3600       106
    20.3800       112
    20.4000       122
    20.4200       130
    20.4400       126
    20.4600       108
    20.4800       116
    20.5000       130
    20.5200       118
    20.5400       106
    20.5600       124
    20.5800       114
    20.6000       106
    20.6200       114
    20.6400       116
    20.6600       116
    20.6800       110
    20.7000       124
    20.7200       122
    20.7400       128
    20.7600       108
    20.7800       108
    20.8000       126
    20.8200       110
    20.8400        90
    20.8600       104
    20.8800       114
    20.9000        96
    20.9200       108
    20.9400        98
    20.9600       114
    20.9800       118
    21.0000       112
    21.0200        98
    21.0400        90
    21.0600       110
    21.0800       112
    21.1000       112
    21.1200       102
    21.1400       106
    21.1600       108
    21.1800       104
    21.2000        92
    21.2200       122
    21.2400        76
    21.2600       106
    21.2800       102
    21.3000        98
    21.3200       106
    21.3400        96
    21.3600        96
    21.3800        90
    21.4000       116
    21.4200        98
    21.4400        96
    21.4600        88
    21.4800        84
    21.5000        88
    21.5200        86
    21.5400        86
    21.5600        98
    21.5800        96
    21.6000        66
    21.6200       102
    21.6400        90
    21.6600        98
    21.6800        76
    21.7000        94
    21.7200        84
    21.7400        76
    21.7600        84
    21.7800       102
    21.8000       102
    21.8200       120
    21.8400        88
    21.8600        88
    21.8800        98
    21.9000        68
    21.9200        88
    21.9400        92
    21.9600        88
    21.9800        80
    22.0000        80
    22.0200        82
    22.0400        76
    22.0600        98
    22.0800        96
    22.1000       106
    22.1200        88
    22.1400       106
    22.1600        88
    22.1800        86
    22.2000       106
    22.2200        98
    22.2400        88
    22.2600        92
    22.2800       104
    22.3000        90
    22.3200        90
    22.3400        96
    22.3600        84
    22.3800       110
    22.4000        80
    22.4200        92
    22.4400        90
    22.4600       100
    22.4800        82
    22.5000       100
    22.5200       104
    22.5400       102
    22.5600        84
    22.5800        80
    22.6000        98
    22.6200        78
    22.6400        80
    22.6600        76
    22.6800        84
    22.7000        90
    22.7200        92
    22.7400        86
    22.7600        88
    22.7800       104
    22.8000        68
    22.8200        68
    22.8400        98
    22.8600       106
    22.8800        76
    22.9000       108
    22.9200        88
    22.9400        84
    22.9600        96
    22.9800       106
    23.0000        90
    23.0200        76
    23.0400        86
    23.0600        80
    23.0800        96
    23.1000        82
    23.1200       100
    23.1400        82
    23.1600        98
    23.1800        80
    23.2000       100
    23.2200        76
    23.2400        98
    23.2600        86
    23.2800        98
    23.3000        80
    23.3200        68
    23.3400        74
    23.3600        88
    23.3800        66
    23.4000        76
    23.4200        78
    23.4400        70
    23.4600        96
    23.4800        76
    23.5000        80
    23.5200        80
    23.5400        86
    23.5600        88
    23.5800        80
    23.6000        84
    23.6200        98
    23.6400        92
    23.6600        82
    23.6800        70
    23.7000       100
    23.7200        70
    23.7400       100
    23.7600        86
    23.7800        78
    23.8000        76
    23.8200        84
    23.8400        96
    23.8600        96
    23.8800       100
    23.9000        90
    23.9200       104
    23.9400        78
    23.9600        76
    23.9800        82
    24.0000       100
    24.0200        82
    24.0400        80
    24.0600       100
    24.0800       110
    24.1000       100
    24.1200        82
    24.1400        82
    24.1600        90
    24.1800        92
    24.2000        94
    24.2200        82
    24.2400        94
    24.2600        96
    24.2800        78
    24.3000        96
    24.3200        96
    24.3400       104
    24.3600        76
    24.3800       110
    24.4000       116
    24.4200       110
    24.4400       110
    24.4600       118
    24.4800       122
    24.5000       124
    24.5200       150
    24.5400       130
    24.5600       146
    24.5800       182
    24.6000       180
    24.6200       190
    24.6400       200
    24.6600       240
    24.6800       252
    24.7000       288
    24.7200       300
    24.7400       366
    24.7600       418
    24.7800       490
    24.8000       556
    24.8200       644
    24.8400       778
    24.8600       868
    24.8800       948
    24.9000      1006
    24.9200      1058
    24.9400      1038
    24.9600       954
    24.9800       912
    25.0000       788
    25.0200       632
    25.0400       510
    25.0600       418
    25.0800       336
    25.1000       244
    25.1200       210
    25.1400       202
    25.1600       176
    25.1800       140
    25.2000       138
    25.2200       124
    25.2400       120
    25.2600       112
    25.2800       114
    25.3000       106
    25.3200       116
    25.3400       100
    25.3600        94
    25.3800        88
    25.4000        86
    25.4200        92
    25.4400        88
    25.4600        78
    25.4800        94
    25.5000        90
    25.5200        72
    25.5400        88
    25.5600        74
    25.5800        88
    25.6000        86
    25.6200        68
    25.6400        78
    25.6600        68
    25.6800        78
    25.7000        66
    25.7200        74
    25.7400        62
    25.7600        64
    25.7800        62
    25.8000        78
    25.8200        82
    25.8400        80
    25.8600        72
    25.8800        64
    25.9000        82
    25.9200        66
    25.9400        66
    25.9600        58
    25.9800        70
    26.0000        66
    26.0200        64
    26.0400        58
    26.0600        78
    26.0800        68
    26.1000        76
    26.1200        68
    26.1400        54
    26.1600        64
    26.1800        80
    26.2000        86
    26.2200        56
    26.2400        66
    26.2600        76
    26.2800        70
    26.3000        76
    26.3200        66
    26.3400        58
    26.3600        76
    26.3800        52
    26.4000        74
    26.4200        68
    26.4400        58
    26.4600        62
    26.4800        68
    26.5000        64
    26.5200        60
    26.5400        50
    26.5600        72
    26.5800        86
    26.6000        62
    26.6200        60
    26.6400        76
    26.6600        70
    26.6800        54
    26.7000        62
    26.7200        58
    26.7400        76
    26.7600        52
    26.7800        72
    26.8000        58
    26.8200        66
    26.8400        60
    26.8600        58
    26.8800        64
    26.9000        70
    26.9200        62
    26.9400        54
    26.9600        60
    26.9800        66
    27.0000        62
    27.0200        54
    27.0400        50
    27.0600        54
    27.0800        72
    27.1000        74
    27.1200        50
    27.1400        70
    27.1600        48
    27.1800        72
    27.2000        52
    27.2200        92
    27.2400        52
    27.2600        58
    27.2800        62
    27.3000        74
    27.3200        54
    27.3400        62
    27.3600        78
    27.3800        58
    27.4000        62
    27.4200        50
    27.4400        68
    27.4600        64
    27.4800        72
    27.5000        50
    27.5200        64
    27.5400        64
    27.5600        54
    27.5800        62
    27.6000        56
    27.6200        54
    27.6400        54
    27.6600        84
    27.6800        50
    27.7000        56
    27.7200        66
    27.7400        48
    27.7600        56
    27.7800        52
    27.8000        64
    27.8200        52
    27.8400        62
    27.8600        50
    27.8800        56
    27.9000        62
    27.9200        48
    27.9400        52
    27.9600        66
    27.9800        64
    28.0000        68
    28.0200        76
    28.0400        70
    28.0600        60
    28.0800        48
    28.1000        50
    28.1200        58
    28.1400        60
    28.1600        54
    28.1800        64
    28.2000        40
    28.2200        52
    28.2400        52
    28.2600        68
    28.2800        70
    28.3000        58
    28.3200        50
    28.3400        46
    28.3600        52
    28.3800        56
    28.4000        60
    28.4200        62
    28.4400        50
    28.4600        56
    28.4800        58
    28.5000        66
    28.5200        58
    28.5400        52
    28.5600        52
    28.5800        52
    28.6000        52
    28.6200        62
    28.6400        56
    28.6600        48
    28.6800        52
    28.7000        58
    28.7200        48
    28.7400        54
    28.7600        64
    28.7800        56
    28.8000        60
    28.8200        68
    28.8400        50
    28.8600        62
    28.8800        50
    28.9000        46
    28.9200        52
    28.9400        58
    28.9600        46
    28.9800        40
    29.0000        68
    29.0200        60
    29.0400        46
    29.0600        58
    29.0800        52
    29.1000        56
    29.1200        66
    29.1400        48
    29.1600        54
    29.1800        68
    29.2000        50
    29.2200        48
    29.2400        54
    29.2600        50
    29.2800        66
    29.3000        48
    29.3200        58
    29.3400        50
    29.3600        54
    29.3800        38
    29.4000        54
    29.4200        58
    29.4400        52
    29.4600        60
    29.4800        54
    29.5000        62
    29.5200        78
    29.5400        64
    29.5600        58
    29.5800        54
    29.6000        54
    29.6200        64
    29.6400        58
    29.6600        68
    29.6800        52
    29.7000        64
    29.7200        48
    29.7400        50
    29.7600        38
    29.7800        60
    29.8000        58
    29.8200        54
    29.8400        54
    29.8600        54
    29.8800        44
    29.9000        50
    29.9200        60
    29.9400        60
    29.9600        54
    29.9800        48
    30.0000        66
    30.0200        56
    30.0400        66
    30.0600        56
    30.0800        56
    30.1000        52
    30.1200        44
    30.1400        60
    30.1600        52
    30.1800        60
    30.2000        60
    30.2200        56
    30.2400        58
    30.2600        36
    30.2800        58
    30.3000        66
    30.3200        50
    30.3400        44
    30.3600        36
    30.3800        56
    30.4000        60
    30.4200        62
    30.4400        46
    30.4600        46
    30.4800        64
    30.5000        58
    30.5200        52
    30.5400        42
    30.5600        56
    30.5800        60
    30.6000        64
    30.6200        50
    30.6400        62
    30.6600        52
    30.6800        62
    30.7000        64
    30.7200        50
    30.7400        60
    30.7600        52
    30.7800        66
    30.8000        50
    30.8200        62
    30.8400        46
    30.8600        86
    30.8800        72
    30.9000        64
    30.9200        74
    30.9400        72
    30.9600        88
    30.9800        86
    31.0000        78
    31.0200        94
    31.0400        96
    31.0600        84
    31.0800        90
    31.1000       104
    31.1200       140
    31.1400       156
    31.1600       174
    31.1800       176
    31.2000       182
    31.2200       234
    31.2400       230
    31.2600       250
    31.2800       278
    31.3000       276
    31.3200       296
    31.3400       296
    31.3600       314
    31.3800       278
    31.4000       240
    31.4200       216
    31.4400       184
    31.4600       160
    31.4800       122
    31.5000       122
    31.5200       118
    31.5400        90
    31.5600        94
    31.5800        72
    31.6000        66
    31.6200        84
    31.6400        58
    31.6600        60
    31.6800        62
    31.7000        74
    31.7200        78
    31.7400        48
    31.7600        68
    31.7800        54
    31.8000        58
    31.8200        52
    31.8400        48
    31.8600        46
    31.8800        46
    31.9000        54
    31.9200        42
    31.9400        54
    31.9600        48
    31.9800        50
    32.0000        50
    32.0200        48
    32.0400        66
    32.0600        52
    32.0800        64
    32.1000        52
    32.1200        58
    32.1400        52
    32.1600        60
    32.1800        66
    32.2000        42
    32.2200        50
    32.2400        50
    32.2600        48
    32.2800        42
    32.3000        60
    32.3200        64
    32.3400        64
    32.3600        54
    32.3800        52
    32.4000        48
    32.4200        64
    32.4400        64
    32.4600        52
    32.4800        64
    32.5000        40
    32.5200        54
    32.5400        52
    32.5600        44
    32.5800        58
    32.6000        34
    32.6200        68
    32.6400        66
    32.6600        52
    32.6800        42
    32.7000        50
    32.7200        46
    32.7400        42
    32.7600        56
    32.7800        50
    32.8000        60
    32.8200        54
    32.8400        48
    32.8600        48
    32.8800        54
    32.9000        54
    32.9200        58
    32.9400        60
    32.9600        52
    32.9800        42
    33.0000        52
    33.0200        72
    33.0400        54
    33.0600        46
    33.0800        52
    33.1000        58
    33.1200        50
    33.1400        54
    33.1600        44
    33.1800        54
    33.2000        48
    33.2200        50
    33.2400        64
    33.2600        48
    33.2800        56
    33.3000        50
    33.3200        44
    33.3400        56
    33.3600        80
    33.3800        66
    33.4000        74
    33.4200        64
    33.4400        98
    33.4600        84
    33.4800        94
    33.5000        94
    33.5200        92
    33.5400        86
    33.5600       102
    33.5800        92
    33.6000       102
    33.6200        80
    33.6400       100
    33.6600        76
    33.6800        74
    33.7000        80
    33.7200        72
    33.7400        64
    33.7600        64
    33.7800        62
    33.8000        48
    33.8200        76
    33.8400        70
    33.8600        70
    33.8800        84
    33.9000        72
    33.9200        68
    33.9400        58
    33.9600        74
    33.9800        62
    34.0000        78
    34.0200        78
    34.0400        78
    34.0600        88
    34.0800        76
    34.1000        86
    34.1200        80
    34.1400        84
    34.1600        80
    34.1800       114
    34.2000       104
    34.2200       112
    34.2400       120
    34.2600       132
    34.2800       114
    34.3000       144
    34.3200       138
    34.3400       182
    34.3600       182
    34.3800       196
    34.4000       232
    34.4200       234
    34.4400       286
    34.4600       316
    34.4800       332
    34.5000       358
    34.5200       390
    34.5400       344
    34.5600       368
    34.5800       340
    34.6000       324
    34.6200       298
    34.6400       272
    34.6600       254
    34.6800       238
    34.7000       206
    34.7200       168
    34.7400       204
    34.7600       180
    34.7800       198
    34.8000       180
    34.8200       196
    34.8400       204
    34.8600       180
    34.8800       228
    34.9000       230
    34.9200       238
    34.9400       260
    34.9600       254
    34.9800       322
    35.0000       358
    35.0200       382
    35.0400       400
    35.0600       448
    35.0800       468
    35.1000       522
    35.1200       574
    35.1400       552
    35.1600       510
    35.1800       484
    35.2000       482
    35.2200       438
    35.2400       398
    35.2600       302
    35.2800       298
    35.3000       268
    35.3200       224
    35.3400       208
    35.3600       196
    35.3800       142
    35.4000       154
    35.4200       150
    35.4400       144
    35.4600       136
    35.4800       130
    35.5000       108
    35.5200       128
    35.5400       118
    35.5600       140
    35.5800       118
    35.6000       100
    35.6200       104
    35.6400        86
    35.6600        84
    35.6800       100
    35.7000        88
    35.7200        80
    35.7400        84
    35.7600        74
    35.7800        88
    35.8000        88
    35.8200        86
    35.8400        82
    35.8600        86
    35.8800        80
    35.9000       108
    35.9200        74
    35.9400        84
    35.9600        96
    35.9800        94
    36.0000        96
    36.0200       100
    36.0400       110
    36.0600        88
    36.0800        96
    36.1000        98
    36.1200       112
    36.1400       104
    36.1600        98
    36.1800       102
    36.2000       128
    36.2200       116
    36.2400       110
    36.2600       130
    36.2800       138
    36.3000       132
    36.3200       136
    36.3400       132
    36.3600       174
    36.3800       160
    36.4000       192
    36.4200       208
    36.4400       248
    36.4600       210
    36.4800       254
    36.5000       284
    36.5200       292
    36.5400       362
    36.5600       386
    36.5800       406
    36.6000       394
    36.6200       454
    36.6400       432
    36.6600       438
    36.6800       458
    36.7000       426
    36.7200       396
    36.7400       358
    36.7600       328
    36.7800       276
    36.8000       254
    36.8200       246
    36.8400       188
    36.8600       172
    36.8800       172
    36.9000       148
    36.9200       142
    36.9400       132
    36.9600       114
    36.9800       116
    37.0000       130
    37.0200        96
    37.0400       108
    37.0600       104
    37.0800       100
    37.1000       116
    37.1200        98
    37.1400        86
    37.1600        98
    37.1800       106
    37.2000        98
    37.2200       118
    37.2400       102
    37.2600       110
    37.2800        88
    37.3000       108
    37.3200       102
    37.3400       128
    37.3600       138
    37.3800       124
    37.4000       130
    37.4200       166
    37.4400       174
    37.4600       190
    37.4800       208
    37.5000       244
    37.5200       240
    37.5400       234
    37.5600       286
    37.5800       270
    37.6000       228
    37.6200       236
    37.6400       236
    37.6600       214
    37.6800       220
    37.7000       204
    37.7200       200
    37.7400       192
    37.7600       180
    37.7800       158
    37.8000       148
    37.8200       118
    37.8400       124
    37.8600       142
    37.8800       120
    37.9000       100
    37.9200       100
    37.9400        96
    37.9600        98
    37.9800        86
    38.0000        94
    38.0200        74
    38.0400       102
    38.0600        88
    38.0800        82
    38.1000        56
    38.1200        90
    38.1400        62
    38.1600        62
    38.1800        70
    38.2000        62
    38.2200        66
    38.2400        82
    38.2600        66
    38.2800        76
    38.3000        58
    38.3200        66
    38.3400        58
    38.3600        68
    38.3800        54
    38.4000        70
    38.4200        74
    38.4400        60
    38.4600        54
    38.4800        66
    38.5000        72
    38.5200        76
    38.5400        66
    38.5600        60
    38.5800        58
    38.6000        48
    38.6200        66
    38.6400        52
    38.6600        66
    38.6800        56
    38.7000        72
    38.7200        70
    38.7400        66
    38.7600        68
    38.7800        66
    38.8000        60
    38.8200        62
    38.8400        66
    38.8600        72
    38.8800        68
    38.9000        58
    38.9200        84
    38.9400        66
    38.9600        68
    38.9800        62
    39.0000        88
    39.0200        66
    39.0400        72
    39.0600        78
    39.0800        68
    39.1000        68
    39.1200        78
    39.1400        62
    39.1600        78
    39.1800        66
    39.2000        82
    39.2200        94
    39.2400        64
    39.2600        70
    39.2800        74
    39.3000        84
    39.3200        72
    39.3400        82
    39.3600        90
    39.3800        96
    39.4000        98
    39.4200        94
    39.4400        90
    39.4600       102
    39.4800       126
    39.5000       126
    39.5200       124
    39.5400       154
    39.5600       142
    39.5800       140
    39.6000       184
    39.6200       142
    39.6400       188
    39.6600       188
    39.6800       210
    39.7000       210
    39.7200       212
    39.7400       214
    39.7600       198
    39.7800       142
    39.8000       210
    39.8200       156
    39.8400       168
    39.8600       146
    39.8800       134
    39.9000       100
    39.9200        96
    39.9400       116
    39.9600        98
    39.9800        72
    40.0000        78
    40.0200        86
    40.0400        74
    40.0600        58
    40.0800        80
    40.1000        88
    40.1200        64
    40.1400        78
    40.1600        60
    40.1800        66
    40.2000        66
    40.2200        60
    40.2400        56
    40.2600        66
    40.2800        62
    40.3000        66
    40.3200        64
    40.3400        52
    40.3600        56
    40.3800        50
    40.4000        58
    40.4200        56
    40.4400        42
    40.4600        48
    40.4800        52
    40.5000        62
    40.5200        46
    40.5400        54
    40.5600        66
    40.5800        40
    40.6000        54
    40.6200        42
    40.6400        56
    40.6600        50
    40.6800        50
    40.7000        62
    40.7200        48
    40.7400        56
    40.7600        44
    40.7800        58
    40.8000        52
    40.8200        46
    40.8400        40
    40.8600        58
    40.8800        54
    40.9000        54
    40.9200        52
    40.9400        48
    40.9600        56
    40.9800        46
    41.0000        56
    41.0200        70
    41.0400        66
    41.0600        34
    41.0800        54
    41.1000        64
    41.1200        54
    41.1400        64
    41.1600        50
    41.1800        56
    41.2000        50
    41.2200        50
    41.2400        46
    41.2600        56
    41.2800        60
    41.3000        58
    41.3200        50
    41.3400        48
    41.3600        42
    41.3800        36
    41.4000        34
    41.4200        46
    41.4400        42
    41.4600        52
    41.4800        44
    41.5000        52
    41.5200        48
    41.5400        52
    41.5600        38
    41.5800        38
    41.6000        60
    41.6200        44
    41.6400        52
    41.6600        40
    41.6800        48
    41.7000        52
    41.7200        58
    41.7400        46
    41.7600        50
    41.7800        42
    41.8000        28
    41.8200        48
    41.8400        38
    41.8600        44
    41.8800        58
    41.9000        46
    41.9200        44
    41.9400        50
    41.9600        52
    41.9800        50
    42.0000        36
    42.0200        42
    42.0400        36
    42.0600        48
    42.0800        46
    42.1000        44
    42.1200        46
    42.1400        44
    42.1600        38
    42.1800        42
    42.2000        56
    42.2200        48
    42.2400        44
    42.2600        46
    42.2800        58
    42.3000        38
    42.3200        52
    42.3400        54
    42.3600        40
    42.3800        44
    42.4000        48
    42.4200        50
    42.4400        60
    42.4600        44
    42.4800        38
    42.5000        46
    42.5200        46
    42.5400        38
    42.5600        56
    42.5800        50
    42.6000        30
    42.6200        42
    42.6400        38
    42.6600        44
    42.6800        60
    42.7000        40
    42.7200        52
    42.7400        38
    42.7600        44
    42.7800        50
    42.8000        32
    42.8200        48
    42.8400        26
    42.8600        48
    42.8800        54
    42.9000        50
    42.9200        44
    42.9400        56
    42.9600        50
    42.9800        34
    43.0000        60
    43.0200        52
    43.0400        50
    43.0600        58
    43.0800        52
    43.1000        48
    43.1200        38
    43.1400        46
    43.1600        60
    43.1800        50
    43.2000        44
    43.2200        54
    43.2400        54
    43.2600        64
    43.2800        50
    43.3000        68
    43.3200        44
    43.3400        60
    43.3600        58
    43.3800        62
    43.4000        58
    43.4200        62
    43.4400        70
    43.4600        58
    43.4800        72
    43.5000        64
    43.5200        72
    43.5400        94
    43.5600        98
    43.5800        70
    43.6000        66
    43.6200        66
    43.6400        76
    43.6600        78
    43.6800        76
    43.7000        66
    43.7200        78
    43.7400        66
    43.7600        74
    43.7800        70
    43.8000        58
    43.8200        70
    43.8400        64
    43.8600        54
    43.8800        66
    43.9000        54
    43.9200        62
    43.9400        48
    43.9600        74
    43.9800        66
    44.0000        54
    44.0200        50
    44.0400        72
    44.0600        70
    44.0800        76
    44.1000        82
    44.1200        74
    44.1400        64
    44.1600        56
    44.1800        74
    44.2000        66
    44.2200        80
    44.2400        74
    44.2600        80
    44.2800        82
    44.3000       112
    44.3200        72
    44.3400        96
    44.3600       110
    44.3800       118
    44.4000       128
    44.4200       106
    44.4400       120
    44.4600       124
    44.4800       124
    44.5000       148
    44.5200       136
    44.5400       126
    44.5600       140
    44.5800       134
    44.6000       146
    44.6200       108
    44.6400       150
    44.6600       124
    44.6800       130
    44.7000       142
    44.7200       154
    44.7400       122
    44.7600       142
    44.7800       150
    44.8000       156
    44.8200       190
    44.8400       214
    44.8600       200
    44.8800       212
    44.9000       242
    44.9200       256
    44.9400       318
    44.9600       328
    44.9800       294
    45.0000       346
    45.0200       362
    45.0400       368
    45.0600       392
    45.0800       372
    45.1000       386
    45.1200       334
    45.1400       336
    45.1600       316
    45.1800       298
    45.2000       282
    45.2200       244
    45.2400       238
    45.2600       204
    45.2800       172
    45.3000       210
    45.3200       182
    45.3400       172
    45.3600       120
    45.3800       142
    45.4000       118
    45.4200       112
    45.4400       100
    45.4600       114
    45.4800       104
    45.5000       104
    45.5200       102
    45.5400        84
    45.5600        86
    45.5800        90
    45.6000        80
    45.6200        58
    45.6400        60
    45.6600        74
    45.6800        72
    45.7000        66
    45.7200        52
    45.7400        84
    45.7600        64
    45.7800        70
    45.8000        64
    45.8200        52
    45.8400        42
    45.8600        56
    45.8800        60
    45.9000        64
    45.9200        52
    45.9400        62
    45.9600        52
    45.9800        76
    46.0000        50
    46.0200        46
    46.0400        54
    46.0600        46
    46.0800        58
    46.1000        64
    46.1200        58
    46.1400        44
    46.1600        52
    46.1800        52
    46.2000        62
    46.2200        50
    46.2400        46
    46.2600        42
    46.2800        52
    46.3000        36
    46.3200        54
    46.3400        68
    46.3600        48
    46.3800        34
    46.4000        44
    46.4200        44
    46.4400        62
    46.4600        52
    46.4800        42
    46.5000        54
    46.5200        42
    46.5400        46
    46.5600        50
    46.5800        48
    46.6000        48
    46.6200        40
    46.6400        58
    46.6600        34
    46.6800        48
    46.7000        54
    46.7200        40
    46.7400        58
    46.7600        54
    46.7800        50
    46.8000        52
    46.8200        34
    46.8400        30
    46.8600        40
    46.8800        42
    46.9000        42
    46.9200        44
    46.9400        56
    46.9600        40
    46.9800        48
    47.0000        50
    47.0200        50
    47.0400        40
    47.0600        42
    47.0800        44
    47.1000        36
    47.1200        48
    47.1400        60
    47.1600        58
    47.1800        46
    47.2000        38
    47.2200        48
    47.2400        50
    47.2600        50
    47.2800        48
    47.3000        52
    47.3200        42
    47.3400        50
    47.3600        40
    47.3800        50
    47.4000        58
    47.4200        50
    47.4400        60
    47.4600        46
    47.4800        46
    47.5000        52
    47.5200        52
    47.5400        60
    47.5600        46
    47.5800        48
    47.6000        48
    47.6200        50
    47.6400        48
    47.6600        54
    47.6800        50
    47.7000        64
    47.7200        62
    47.7400        54
    47.7600        64
    47.7800        60
    47.8000        76
    47.8200        72
    47.8400        68
    47.8600       106
    47.8800        78
    47.9000        74
    47.9200        86
    47.9400       104
    47.9600       110
    47.9800       110
    48.0000       110
    48.0200       116
    48.0400       122
    48.0600       136
    48.0800       136
    48.1000       146
    48.1200       140
    48.1400       120
    48.1600       128
    48.1800       136
    48.2000       132
    48.2200       120
    48.2400       126
    48.2600       106
    48.2800       118
    48.3000        96
    48.3200       108
    48.3400        98
    48.3600       106
    48.3800        86
    48.4000        72
    48.4200        78
    48.4400        88
    48.4600        72
    48.4800        60
    48.5000        64
    48.5200        62
    48.5400        62
    48.5600        54
    48.5800        58
    48.6000        46
    48.6200        54
    48.6400        58
    48.6600        64
    48.6800        48
    48.7000        72
    48.7200        48
    48.7400        50
    48.7600        48
    48.7800        54
    48.8000        54
    48.8200        46
    48.8400        50
    48.8600        52
    48.8800        58
    48.9000        38
    48.9200        48
    48.9400        48
    48.9600        52
    48.9800        52
    49.0000        50
    49.0200        58
    49.0400        50
    49.0600        30
    49.0800        46
    49.1000        54
    49.1200        46
    49.1400        52
    49.1600        48
    49.1800        48
    49.2000        52
    49.2200        46
    49.2400        50
    49.2600        52
    49.2800        60
    49.3000        52
    49.3200        60
    49.3400        48
    49.3600        58
    49.3800        68
    49.4000        54
    49.4200        52
    49.4400        58
    49.4600        66
    49.4800        76
    49.5000        78
    49.5200        76
    49.5400        94
    49.5600        82
    49.5800       106
    49.6000        94
    49.6200       100
    49.6400        90
    49.6600       100
    49.6800        94
    49.7000       110
    49.7200       104
    49.7400       122
    49.7600       122
    49.7800       124
    49.8000       110
    49.8200       126
    49.8400       142
    49.8600       108
    49.8800       108
    49.9000       120
    49.9200        90
    49.9400       100
    49.9600        88
    49.9800       106
    50.0000        74
    50.0200        70
    50.0400        80
    50.0600        66
    50.0800        52
    50.1000        62
    50.1200        56
    50.1400        76
    50.1600        56
    50.1800        52
    50.2000        58
    50.2200        64
    50.2400        58
    50.2600        46
    50.2800        46
    50.3000        44
    50.3200        56
    50.3400        56
    50.3600        54
    50.3800        56
    50.4000        42
    50.4200        26
    50.4400        42
    50.4600        30
    50.4800        50
    50.5000        50
    50.5200        30
    50.5400        44
    50.5600        32
    50.5800        52
    50.6000        42
    50.6200        52
    50.6400        34
    50.6600        62
    50.6800        50
    50.7000        36
    50.7200        38
    50.7400        52
    50.7600        36
    50.7800        36
    50.8000        42
    50.8200        42
    50.8400        38
    50.8600        54
    50.8800        62
    50.9000        36
    50.9200        50
    50.9400        42
    50.9600        34
    50.9800        42
    51.0000        54
    51.0200        42
    51.0400        36
    51.0600        40
    51.0800        34
    51.1000        46
    51.1200        40
    51.1400        52
    51.1600        46
    51.1800        44
    51.2000        34
    51.2200        44
    51.2400        42
    51.2600        52
    51.2800        48
    51.3000        40
    51.3200        42
    51.3400        34
    51.3600        42
    51.3800        36
    51.4000        32
    51.4200        48
    51.4400        36
    51.4600        44
    51.4800        42
    51.5000        40
    51.5200        34
    51.5400        40
    51.5600        42
    51.5800        46
    51.6000        44
    51.6200        40
    51.6400        40
    51.6600        50
    51.6800        40
    51.7000        52
    51.7200        38
    51.7400        38
    51.7600        38
    51.7800        38
    51.8000        30
    51.8200        46
    51.8400        54
    51.8600        38
    51.8800        38
    51.9000        46
    51.9200        44
    51.9400        44
    51.9600        30
    51.9800        42
    52.0000        44
    52.0200        44
    52.0400        54
    52.0600        54
    52.0800        54
    52.1000        60
    52.1200        64
    52.1400        50
    52.1600        42
    52.1800        56
    52.2000        52
    52.2200        56
    52.2400        56
    52.2600        68
    52.2800        78
    52.3000        62
    52.3200        80
    52.3400        76
    52.3600        80
    52.3800        72
    52.4000        90
    52.4200        58
    52.4400        74
    52.4600        82
    52.4800        66
    52.5000        78
    52.5200        76
    52.5400        54
    52.5600        68
    52.5800        56
    52.6000        90
    52.6200        68
    52.6400        86
    52.6600        60
    52.6800        60
    52.7000        80
    52.7200        66
    52.7400        64
    52.7600        58
    52.7800        54
    52.8000        70
    52.8200        76
    52.8400        70
    52.8600        66
    52.8800        74
    52.9000        78
    52.9200        72
    52.9400        62
    52.9600        84
    52.9800        74
    53.0000        76
    53.0200        60
    53.0400        74
    53.0600        74
    53.0800        70
    53.1000        90
    53.1200        72
    53.1400        72
    53.1600        88
    53.1800        80
    53.2000        86
    53.2200        74
    53.2400        68
    53.2600        60
    53.2800        80
    53.3000        74
    53.3200        52
    53.3400        66
    53.3600        64
    53.3800        54
    53.4000        68
    53.4200        74
    53.4400        78
    53.4600        50
    53.4800        56
    53.5000        66
    53.5200        68
    53.5400        44
    53.5600        62
    53.5800        50
    53.6000        52
    53.6200        54
    53.6400        64
    53.6600        52
    53.6800        54
    53.7000        56
    53.7200        58
    53.7400        48
    53.7600        48
    53.7800        62
    53.8000        66
    53.8200        60
    53.8400        50
    53.8600        64
    53.8800        54
    53.9000        52
    53.9200        52
    53.9400        52
    53.9600        54
    53.9800        46
    54.0000        58
    54.0200        58
    54.0400        66
    54.0600        42
    54.0800        64
    54.1000        48
    54.1200        56
    54.1400        56
    54.1600        52
    54.1800        50
    54.2000        62
    54.2200        50
    54.2400        52
    54.2600        54
    54.2800        56
    54.3000        52
    54.3200        52
    54.3400        52
    54.3600        42
    54.3800        46
    54.4000        62
    54.4200        52
    54.4400        64
    54.4600        50
    54.4800        52
    54.5000        46
    54.5200        58
    54.5400        44
    54.5600        42
    54.5800        60
    54.6000        64
    54.6200        60
    54.6400        50
    54.6600        72
    54.6800        62
    54.7000        56
    54.7200        56
    54.7400        58
    54.7600        74
    54.7800        66
    54.8000        74
    54.8200        60
    54.8400        76
    54.8600        76
    54.8800        68
    54.9000        80
    54.9200        86
    54.9400        68
    54.9600        74
    54.9800        94
    55.0000        82
    55.0200        84
    55.0400        80
    55.0600        96
    55.0800        88
    55.1000        78
    55.1200       110
    55.1400       108
    55.1600        64
    55.1800        88
    55.2000        58
    55.2200        62
    55.2400        58
    55.2600        72
    55.2800        62
    55.3000        74
    55.3200        66
    55.3400        56
    55.3600        62
    55.3800        74
    55.4000        60
    55.4200        54
    55.4400        52
    55.4600        60
    55.4800        48
    55.5000        48
    55.5200        66
    55.5400        46
    55.5600        36
    55.5800        52
    55.6000        40
    55.6200        56
    55.6400        52
    55.6600        52
    55.6800        50
    55.7000        48
    55.7200        52
    55.7400        36
    55.7600        38
    55.7800        48
    55.8000        56
    55.8200        54
    55.8400        46
    55.8600        42
    55.8800        52
    55.9000        44
    55.9200        44
    55.9400        48
    55.9600        46
    55.9800        32
    56.0000        30
    56.0200        66
    56.0400        44
    56.0600        46
    56.0800        52
    56.1000        52
    56.1200        48
    56.1400        52
    56.1600        56
    56.1800        38
    56.2000        58
    56.2200        46
    56.2400        38
    56.2600        52
    56.2800        38
    56.3000        52
    56.3200        40
    56.3400        56
    56.3600        46
    56.3800        50
    56.4000        46
    56.4200        42
    56.4400        36
    56.4600        44
    56.4800        58
    56.5000        50
    56.5200        44
    56.5400        54
    56.5600        42
    56.5800        58
    56.6000        52
    56.6200        58
    56.6400        50
    56.6600        56
    56.6800        38
    56.7000        66
    56.7200        40
    56.7400        52
    56.7600        50
    56.7800        48
    56.8000        56
    56.8200        54
    56.8400        58
    56.8600        48
    56.8800        52
    56.9000        58
    56.9200        42
    56.9400        42
    56.9600        38
    56.9800        48
    57.0000        52
    57.0200        58
    57.0400        52
    57.0600        50
    57.0800        60
    57.1000        62
    57.1200        48
    57.1400        50
    57.1600        48
    57.1800        54
    57.2000        54
    57.2200        60
    57.2400        52
    57.2600        50
    57.2800        48
    57.3000        58
    57.3200        48
    57.3400        48
    57.3600        60
    57.3800        50
    57.4000        58
    57.4200        60
    57.4400        46
    57.4600        48
    57.4800        56
    57.5000        40
    57.5200        60
    57.5400        52
    57.5600        60
    57.5800        52
    57.6000        58
    57.6200        48
    57.6400        56
    57.6600        56
    57.6800        40
    57.7000        64
    57.7200        56
    57.7400        44
    57.7600        58
    57.7800        52
    57.8000        48
    57.8200        52
    57.8400        82
    57.8600        50
    57.8800        48
    57.9000        70
    57.9200        62
    57.9400        52
    57.9600        62
    57.9800        60
    58.0000        62
    58.0200        66
    58.0400        84
    58.0600        70
    58.0800        78
    58.1000        72
    58.1200        74
    58.1400        78
    58.1600        84
    58.1800        68
    58.2000        88
    58.2200        94
    58.2400        88
    58.2600       108
    58.2800        86
    58.3000        86
    58.3200       116
    58.3400        84
    58.3600        88
    58.3800       116
    58.4000       118
    58.4200       110
    58.4400       114
    58.4600       126
    58.4800       160
    58.5000       158
    58.5200       144
    58.5400       182
    58.5600       150
    58.5800       188
    58.6000       170
    58.6200       196
    58.6400       218
    58.6600       208
    58.6800       206
    58.7000       250
    58.7200       216
    58.7400       250
    58.7600       228
    58.7800       196
    58.8000       216
    58.8200       196
    58.8400       204
    58.8600       198
    58.8800       172
    58.9000       178
    58.9200       160
    58.9400       172
    58.9600       144
    58.9800       124
    59.0000       126
    59.0200       124
    59.0400       124
    59.0600       102
    59.0800       102
    59.1000       112
    59.1200        78
    59.1400        98
    59.1600        98
    59.1800        88
    59.2000        78
    59.2200        94
    59.2400        80
    59.2600        90
    59.2800        92
    59.3000        60
    59.3200        94
    59.3400        74
    59.3600        84
    59.3800        66
    59.4000        72
    59.4200        96
    59.4400        66
    59.4600        64
    59.4800        76
    59.5000        82
    59.5200        98
    59.5400       100
    59.5600       104
    59.5800       110
    59.6000       110
    59.6200        92
    59.6400       124
    59.6600       132
    59.6800       158
    59.7000       140
    59.7200       144
    59.7400       182
    59.7600       188
    59.7800       210
    59.8000       234
    59.8200       242
    59.8400       254
    59.8600       310
    59.8800       302
    59.9000       358
    59.9200       396
    59.9400       344
    59.9600       388
    59.9800       376
    60.0000       334
    60.0200       326
    60.0400       308
    60.0600       294
    60.0800       308
    60.1000       256
    60.1200       262
    60.1400       228
    60.1600       184
    60.1800       180
    60.2000       198
    60.2200       158
    60.2400       160
    60.2600       136
    60.2800       138
    60.3000       124
    60.3200       116
    60.3400        96
    60.3600        84
    60.3800        94
    60.4000       102
    60.4200        68
    60.4400        88
    60.4600        80
    60.4800        94
    60.5000        74
    60.5200        62
    60.5400        82
    60.5600        76
    60.5800        80
    60.6000        66
    60.6200        70
    60.6400        74
    60.6600        74
    60.6800        88
    60.7000        70
    60.7200        72
    60.7400        74
    60.7600        68
    60.7800        62
    60.8000        70
    60.8200        82
    60.8400        62
    60.8600        74
    60.8800        66
    60.9000        62
    60.9200        72
    60.9400        72
    60.9600        68
    60.9800        76
    61.0000        60
    61.0200        64
    61.0400        58
    61.0600        62
    61.0800        54
    61.1000        58
    61.1200        70
    61.1400        70
    61.1600        84
    61.1800        90
    61.2000        74
    61.2200        98
    61.2400        80
    61.2600        84
    61.2800        78
    61.3000        98
    61.3200       108
    61.3400       118
    61.3600       128
    61.3800       126
    61.4000       100
    61.4200       130
    61.4400       150
    61.4600       140
    61.4800       130
    61.5000       136
    61.5200       140
    61.5400       148
    61.5600       138
    61.5800       136
    61.6000       136
    61.6200       104
    61.6400       108
    61.6600        90
    61.6800       116
    61.7000        64
    61.7200        92
    61.7400        70
    61.7600        78
    61.7800        70
    61.8000        72
    61.8200        74
    61.8400        62
    61.8600        62
    61.8800        46
    61.9000        52
    61.9200        56
    61.9400        56
    61.9600        46
    61.9800        50
    62.0000        38
    62.0200        46
    62.0400        54
    62.0600        32
    62.0800        46
    62.1000        52
    62.1200        52
    62.1400        40
    62.1600        44
    62.1800        42
    62.2000        38
    62.2200        34
    62.2400        50
    62.2600        48
    62.2800        40
    62.3000        40
    62.3200        44
    62.3400        52
    62.3600        40
    62.3800        36
    62.4000        32
    62.4200        42
    62.4400        56
    62.4600        48
    62.4800        48
    62.5000        42
    62.5200        50
    62.5400        44
    62.5600        48
    62.5800        44
    62.6000        40
    62.6200        40
    62.6400        48
    62.6600        52
    62.6800        44
    62.7000        44
    62.7200        46
    62.7400        46
    62.7600        36
    62.7800        46
    62.8000        44
    62.8200        36
    62.8400        56
    62.8600        40
    62.8800        38
    62.9000        42
    62.9200        46
    62.9400        40
    62.9600        54
    62.9800        44
    63.0000        46
    63.0200        54
    63.0400        64
    63.0600        42
    63.0800        56
    63.1000        42
    63.1200        42
    63.1400        50
    63.1600        48
    63.1800        62
    63.2000        40
    63.2200        44
    63.2400        58
    63.2600        60
    63.2800        50
    63.3000        58
    63.3200        52
    63.3400        62
    63.3600        52
    63.3800        78
    63.4000        56
    63.4200        52
    63.4400        64
    63.4600        56
    63.4800        46
    63.5000        50
    63.5200        48
    63.5400        38
    63.5600        46
    63.5800        44
    63.6000        52
    63.6200        56
    63.6400        56
    63.6600        44
    63.6800        44
    63.7000        40
    63.7200        44
    63.7400        42
    63.7600        42
    63.7800        52
    63.8000        38
    63.8200        42
    63.8400        44
    63.8600        52
    63.8800        38
    63.9000        42
    63.9200        42
    63.9400        34
    63.9600        40
    63.9800        48
    64.0000        34
    64.0200        40
    64.0400        42
    64.0600        44
    64.0800        38
    64.1000        32
    64.1200        36
    64.1400        38
    64.1600        42
    64.1800        36
    64.2000        44
    64.2200        48
    64.2400        28
    64.2600        46
    64.2800        44
    64.3000        42
    64.3200        44
    64.3400        46
    64.3600        40
    64.3800        46
    64.4000        42
    64.4200        36
    64.4400        48
    64.4600        32
    64.4800        44
    64.5000        34
    64.5200        36
    64.5400        46
    64.5600        52
    64.5800        44
    64.6000        40
    64.6200        46
    64.6400        46
    64.6600        52
    64.6800        46
    64.7000        40
    64.7200        54
    64.7400        34
    64.7600        42
    64.7800        42
    64.8000        48
    64.8200        40
    64.8400        50
    64.8600        48
    64.8800        34
    64.9000        52
    64.9200        60
    64.9400        56
    64.9600        46
    64.9800        42
    65.0000        40
