/////////////////////////////////////////////////////////////////////////////////
/// Profile Data Ascii Dump (XRD)                                             ///
/////////////////////////////////////////////////////////////////////////////////

  Group     : Swayze
  Data      : RLO 2127
  File Name : RLO 2127.RAW

# Profile Datafile
          comment             =   
          date & time         = 08-03-11 07:07:41 

# Measurement Condition
    X-ray tube
          target              = Cu 
          voltage             = 40.0 (kV)
          current             = 30.0 (mA)
    Slits
          divergence slit     = 2.00000 (deg) 
          scatter slit        = 2.00000 (deg) 
          receiving slit      = 0.15000 (mm)  
    Scanning
          drive axis          = Theta-2Theta 
          scan range          =    4.000 -   65.000 
          scan mode           = Continuous Scan 
          scan speed          =   2.0000 (deg/min) 
          sampling pitch      =   0.0200 (deg) 
          preset time         =   0.60 (sec) 

# Data      [ Total No. = 3051 ]
  <2Theta>   <   I   >
     4.0000       222
     4.0200       218
     4.0400       196
     4.0600       208
     4.0800       224
     4.1000       248
     4.1200       202
     4.1400       234
     4.1600       244
     4.1800       240
     4.2000       228
     4.2200       208
     4.2400       192
     4.2600       214
     4.2800       210
     4.3000       220
     4.3200       212
     4.3400       196
     4.3600       210
     4.3800       190
     4.4000       182
     4.4200       202
     4.4400       188
     4.4600       204
     4.4800       212
     4.5000       204
     4.5200       226
     4.5400       194
     4.5600       204
     4.5800       184
     4.6000       190
     4.6200       188
     4.6400       198
     4.6600       192
     4.6800       176
     4.7000       208
     4.7200       182
     4.7400       184
     4.7600       170
     4.7800       184
     4.8000       208
     4.8200       182
     4.8400       194
     4.8600       198
     4.8800       222
     4.9000       180
     4.9200       208
     4.9400       184
     4.9600       174
     4.9800       198
     5.0000       180
     5.0200       194
     5.0400       186
     5.0600       198
     5.0800       204
     5.1000       178
     5.1200       192
     5.1400       210
     5.1600       212
     5.1800       210
     5.2000       202
     5.2200       210
     5.2400       192
     5.2600       204
     5.2800       178
     5.3000       198
     5.3200       210
     5.3400       204
     5.3600       204
     5.3800       194
     5.4000       192
     5.4200       196
     5.4400       222
     5.4600       206
     5.4800       192
     5.5000       224
     5.5200       208
     5.5400       216
     5.5600       228
     5.5800       194
     5.6000       204
     5.6200       220
     5.6400       206
     5.6600       214
     5.6800       216
     5.7000       244
     5.7200       212
     5.7400       180
     5.7600       208
     5.7800       204
     5.8000       254
     5.8200       216
     5.8400       226
     5.8600       224
     5.8800       212
     5.9000       232
     5.9200       212
     5.9400       212
     5.9600       216
     5.9800       192
     6.0000       230
     6.0200       226
     6.0400       248
     6.0600       272
     6.0800       244
     6.1000       198
     6.1200       210
     6.1400       220
     6.1600       234
     6.1800       216
     6.2000       236
     6.2200       236
     6.2400       240
     6.2600       210
     6.2800       232
     6.3000       226
     6.3200       234
     6.3400       232
     6.3600       232
     6.3800       238
     6.4000       252
     6.4200       226
     6.4400       232
     6.4600       224
     6.4800       232
     6.5000       224
     6.5200       198
     6.5400       230
     6.5600       230
     6.5800       220
     6.6000       222
     6.6200       226
     6.6400       224
     6.6600       206
     6.6800       192
     6.7000       234
     6.7200       222
     6.7400       216
     6.7600       202
     6.7800       210
     6.8000       204
     6.8200       196
     6.8400       190
     6.8600       194
     6.8800       196
     6.9000       194
     6.9200       190
     6.9400       200
     6.9600       182
     6.9800       180
     7.0000       198
     7.0200       192
     7.0400       188
     7.0600       194
     7.0800       168
     7.1000       202
     7.1200       196
     7.1400       162
     7.1600       168
     7.1800       192
     7.2000       160
     7.2200       162
     7.2400       180
     7.2600       174
     7.2800       174
     7.3000       164
     7.3200       160
     7.3400       152
     7.3600       144
     7.3800       128
     7.4000       156
     7.4200       170
     7.4400       180
     7.4600       172
     7.4800       150
     7.5000       144
     7.5200       156
     7.5400       164
     7.5600       140
     7.5800       144
     7.6000       132
     7.6200       160
     7.6400       158
     7.6600       158
     7.6800       162
     7.7000       144
     7.7200       144
     7.7400       148
     7.7600       144
     7.7800       130
     7.8000       114
     7.8200       172
     7.8400       138
     7.8600       142
     7.8800       150
     7.9000       140
     7.9200       134
     7.9400       158
     7.9600       120
     7.9800       126
     8.0000       124
     8.0200       142
     8.0400       140
     8.0600       136
     8.0800       134
     8.1000       148
     8.1200       148
     8.1400       124
     8.1600       128
     8.1800       142
     8.2000       128
     8.2200       150
     8.2400       164
     8.2600       130
     8.2800       124
     8.3000       150
     8.3200       134
     8.3400       146
     8.3600       126
     8.3800       158
     8.4000       144
     8.4200       150
     8.4400       158
     8.4600       146
     8.4800       136
     8.5000       154
     8.5200       136
     8.5400       144
     8.5600       142
     8.5800       168
     8.6000       178
     8.6200       142
     8.6400       180
     8.6600       162
     8.6800       176
     8.7000       176
     8.7200       182
     8.7400       180
     8.7600       198
     8.7800       182
     8.8000       204
     8.8200       206
     8.8400       216
     8.8600       216
     8.8800       188
     8.9000       196
     8.9200       152
     8.9400       194
     8.9600       158
     8.9800       146
     9.0000       130
     9.0200       136
     9.0400       130
     9.0600       118
     9.0800       144
     9.1000       120
     9.1200       138
     9.1400       122
     9.1600       124
     9.1800       132
     9.2000       150
     9.2200       116
     9.2400       126
     9.2600       108
     9.2800       116
     9.3000       156
     9.3200       128
     9.3400       118
     9.3600       122
     9.3800       114
     9.4000       112
     9.4200       140
     9.4400       164
     9.4600       128
     9.4800       138
     9.5000       142
     9.5200       146
     9.5400       132
     9.5600       102
     9.5800       156
     9.6000       144
     9.6200       144
     9.6400       116
     9.6600       102
     9.6800       150
     9.7000       118
     9.7200        94
     9.7400       130
     9.7600       122
     9.7800       120
     9.8000       110
     9.8200       122
     9.8400       126
     9.8600       112
     9.8800       136
     9.9000       120
     9.9200       100
     9.9400       104
     9.9600       110
     9.9800       122
    10.0000       118
    10.0200       108
    10.0400        98
    10.0600       122
    10.0800       116
    10.1000       118
    10.1200       114
    10.1400       130
    10.1600       114
    10.1800       116
    10.2000       100
    10.2200       134
    10.2400       102
    10.2600       124
    10.2800       110
    10.3000       120
    10.3200       114
    10.3400       104
    10.3600       136
    10.3800       116
    10.4000       108
    10.4200       116
    10.4400       112
    10.4600       110
    10.4800       104
    10.5000       122
    10.5200       118
    10.5400       116
    10.5600       102
    10.5800       110
    10.6000       120
    10.6200        98
    10.6400       106
    10.6600       126
    10.6800       112
    10.7000       100
    10.7200        98
    10.7400       108
    10.7600       104
    10.7800       118
    10.8000       116
    10.8200       116
    10.8400       108
    10.8600        94
    10.8800       104
    10.9000       106
    10.9200       124
    10.9400       114
    10.9600       104
    10.9800       104
    11.0000        92
    11.0200       108
    11.0400       108
    11.0600       106
    11.0800       108
    11.1000       116
    11.1200       130
    11.1400        86
    11.1600       110
    11.1800       122
    11.2000       104
    11.2200       114
    11.2400       110
    11.2600       118
    11.2800       102
    11.3000       124
    11.3200       126
    11.3400       118
    11.3600       114
    11.3800       130
    11.4000       134
    11.4200       120
    11.4400       130
    11.4600       118
    11.4800       122
    11.5000       128
    11.5200       156
    11.5400       126
    11.5600       140
    11.5800       136
    11.6000       134
    11.6200       136
    11.6400       162
    11.6600       180
    11.6800       138
    11.7000       126
    11.7200       166
    11.7400       172
    11.7600       172
    11.7800       208
    11.8000       182
    11.8200       218
    11.8400       216
    11.8600       242
    11.8800       234
    11.9000       256
    11.9200       258
    11.9400       244
    11.9600       320
    11.9800       334
    12.0000       320
    12.0200       358
    12.0400       382
    12.0600       420
    12.0800       432
    12.1000       500
    12.1200       508
    12.1400       622
    12.1600       662
    12.1800       612
    12.2000       698
    12.2200       836
    12.2400       942
    12.2600      1012
    12.2800      1080
    12.3000      1190
    12.3200      1272
    12.3400      1316
    12.3600      1292
    12.3800      1248
    12.4000      1154
    12.4200       942
    12.4400       818
    12.4600       610
    12.4800       506
    12.5000       420
    12.5200       322
    12.5400       294
    12.5600       260
    12.5800       202
    12.6000       212
    12.6200       208
    12.6400       178
    12.6600       174
    12.6800       168
    12.7000       172
    12.7200       142
    12.7400       144
    12.7600       124
    12.7800       102
    12.8000       132
    12.8200       122
    12.8400       100
    12.8600       104
    12.8800       104
    12.9000        90
    12.9200        74
    12.9400       106
    12.9600        84
    12.9800       108
    13.0000        92
    13.0200        86
    13.0400        92
    13.0600        86
    13.0800        82
    13.1000        96
    13.1200        88
    13.1400        92
    13.1600        80
    13.1800        86
    13.2000        94
    13.2200       100
    13.2400        88
    13.2600       106
    13.2800        78
    13.3000        94
    13.3200        96
    13.3400        84
    13.3600        96
    13.3800        94
    13.4000        74
    13.4200        90
    13.4400        86
    13.4600        98
    13.4800        84
    13.5000        98
    13.5200       100
    13.5400        82
    13.5600        98
    13.5800        82
    13.6000       110
    13.6200        92
    13.6400        58
    13.6600        70
    13.6800        62
    13.7000        90
    13.7200        66
    13.7400        88
    13.7600        88
    13.7800        72
    13.8000        86
    13.8200        60
    13.8400        74
    13.8600        60
    13.8800        70
    13.9000       100
    13.9200        70
    13.9400        60
    13.9600        82
    13.9800        70
    14.0000        70
    14.0200        70
    14.0400        60
    14.0600        84
    14.0800        66
    14.1000        64
    14.1200        76
    14.1400        66
    14.1600        70
    14.1800        50
    14.2000        64
    14.2200        74
    14.2400        66
    14.2600        92
    14.2800        68
    14.3000        68
    14.3200        68
    14.3400        56
    14.3600        68
    14.3800        52
    14.4000        64
    14.4200        68
    14.4400        66
    14.4600        80
    14.4800        60
    14.5000        58
    14.5200        70
    14.5400        66
    14.5600        54
    14.5800        62
    14.6000        58
    14.6200        62
    14.6400        76
    14.6600        72
    14.6800        68
    14.7000        68
    14.7200        60
    14.7400        58
    14.7600        64
    14.7800        68
    14.8000        72
    14.8200        74
    14.8400        52
    14.8600        70
    14.8800        74
    14.9000        64
    14.9200        62
    14.9400        68
    14.9600        86
    14.9800        86
    15.0000        64
    15.0200        70
    15.0400        64
    15.0600        72
    15.0800        68
    15.1000        62
    15.1200        60
    15.1400        68
    15.1600        72
    15.1800        50
    15.2000        64
    15.2200        70
    15.2400        54
    15.2600        80
    15.2800        46
    15.3000        70
    15.3200        60
    15.3400        58
    15.3600        60
    15.3800        54
    15.4000        64
    15.4200        54
    15.4400        70
    15.4600        48
    15.4800        62
    15.5000        78
    15.5200        60
    15.5400        50
    15.5600        66
    15.5800        54
    15.6000        74
    15.6200        58
    15.6400        72
    15.6600        58
    15.6800        60
    15.7000        56
    15.7200        48
    15.7400        62
    15.7600        54
    15.7800        50
    15.8000        56
    15.8200        58
    15.8400        54
    15.8600        66
    15.8800        64
    15.9000        58
    15.9200        70
    15.9400        58
    15.9600        48
    15.9800        66
    16.0000        68
    16.0200        60
    16.0400        60
    16.0600        46
    16.0800        60
    16.1000        80
    16.1200        50
    16.1400        60
    16.1600        56
    16.1800        68
    16.2000        52
    16.2200        60
    16.2400        52
    16.2600        54
    16.2800        58
    16.3000        64
    16.3200        60
    16.3400        44
    16.3600        52
    16.3800        68
    16.4000        48
    16.4200        52
    16.4400        48
    16.4600        66
    16.4800        60
    16.5000        52
    16.5200        56
    16.5400        60
    16.5600        60
    16.5800        56
    16.6000        60
    16.6200        48
    16.6400        66
    16.6600        68
    16.6800        50
    16.7000        60
    16.7200        56
    16.7400        64
    16.7600        52
    16.7800        58
    16.8000        60
    16.8200        64
    16.8400        50
    16.8600        54
    16.8800        64
    16.9000        64
    16.9200        36
    16.9400        56
    16.9600        52
    16.9800        64
    17.0000        58
    17.0200        58
    17.0400        56
    17.0600        68
    17.0800        68
    17.1000        52
    17.1200        60
    17.1400        50
    17.1600        54
    17.1800        50
    17.2000        62
    17.2200        52
    17.2400        64
    17.2600        60
    17.2800        58
    17.3000        58
    17.3200        54
    17.3400        50
    17.3600        66
    17.3800        64
    17.4000        54
    17.4200        82
    17.4400        64
    17.4600        48
    17.4800        72
    17.5000        86
    17.5200        72
    17.5400        66
    17.5600        78
    17.5800        70
    17.6000        68
    17.6200        72
    17.6400        72
    17.6600        96
    17.6800        84
    17.7000       106
    17.7200        78
    17.7400        92
    17.7600        96
    17.7800        92
    17.8000        96
    17.8200        68
    17.8400        82
    17.8600        64
    17.8800        62
    17.9000        64
    17.9200        58
    17.9400        66
    17.9600        64
    17.9800        64
    18.0000        58
    18.0200        62
    18.0400        60
    18.0600        62
    18.0800        76
    18.1000        54
    18.1200        66
    18.1400        56
    18.1600        50
    18.1800        54
    18.2000        64
    18.2200        60
    18.2400        40
    18.2600        56
    18.2800        56
    18.3000        60
    18.3200        64
    18.3400        56
    18.3600        52
    18.3800        52
    18.4000        50
    18.4200        62
    18.4400        48
    18.4600        52
    18.4800        64
    18.5000        50
    18.5200        56
    18.5400        64
    18.5600        46
    18.5800        48
    18.6000        48
    18.6200        56
    18.6400        64
    18.6600        60
    18.6800        62
    18.7000        56
    18.7200        48
    18.7400        58
    18.7600        70
    18.7800        48
    18.8000        48
    18.8200        48
    18.8400        60
    18.8600        52
    18.8800        50
    18.9000        60
    18.9200        44
    18.9400        60
    18.9600        64
    18.9800        56
    19.0000        60
    19.0200        58
    19.0400        56
    19.0600        60
    19.0800        66
    19.1000        50
    19.1200        60
    19.1400        66
    19.1600        66
    19.1800        62
    19.2000        64
    19.2200        52
    19.2400        66
    19.2600        74
    19.2800        70
    19.3000        64
    19.3200        62
    19.3400        52
    19.3600        78
    19.3800        66
    19.4000        94
    19.4200        70
    19.4400        68
    19.4600        78
    19.4800        86
    19.5000        88
    19.5200        88
    19.5400        90
    19.5600       104
    19.5800        94
    19.6000       110
    19.6200       124
    19.6400       116
    19.6600       142
    19.6800       140
    19.7000       124
    19.7200       162
    19.7400       202
    19.7600       196
    19.7800       204
    19.8000       238
    19.8200       234
    19.8400       260
    19.8600       256
    19.8800       234
    19.9000       234
    19.9200       204
    19.9400       220
    19.9600       184
    19.9800       184
    20.0000       180
    20.0200       164
    20.0400       184
    20.0600       158
    20.0800       178
    20.1000       176
    20.1200       186
    20.1400       188
    20.1600       200
    20.1800       202
    20.2000       204
    20.2200       236
    20.2400       270
    20.2600       250
    20.2800       222
    20.3000       232
    20.3200       244
    20.3400       244
    20.3600       262
    20.3800       240
    20.4000       214
    20.4200       230
    20.4400       232
    20.4600       200
    20.4800       220
    20.5000       172
    20.5200       170
    20.5400       180
    20.5600       170
    20.5800       190
    20.6000       156
    20.6200       184
    20.6400       194
    20.6600       162
    20.6800       164
    20.7000       196
    20.7200       206
    20.7400       180
    20.7600       214
    20.7800       210
    20.8000       202
    20.8200       218
    20.8400       234
    20.8600       236
    20.8800       234
    20.9000       252
    20.9200       274
    20.9400       246
    20.9600       288
    20.9800       276
    21.0000       268
    21.0200       268
    21.0400       220
    21.0600       216
    21.0800       218
    21.1000       204
    21.1200       236
    21.1400       264
    21.1600       226
    21.1800       236
    21.2000       254
    21.2200       262
    21.2400       236
    21.2600       234
    21.2800       232
    21.3000       222
    21.3200       226
    21.3400       228
    21.3600       208
    21.3800       234
    21.4000       204
    21.4200       188
    21.4400       198
    21.4600       192
    21.4800       180
    21.5000       216
    21.5200       188
    21.5400       176
    21.5600       154
    21.5800       160
    21.6000       156
    21.6200       136
    21.6400       148
    21.6600       146
    21.6800       138
    21.7000       110
    21.7200       106
    21.7400       114
    21.7600       120
    21.7800       100
    21.8000       122
    21.8200       118
    21.8400       114
    21.8600       118
    21.8800       110
    21.9000       114
    21.9200       118
    21.9400       126
    21.9600       108
    21.9800       122
    22.0000       118
    22.0200       106
    22.0400       108
    22.0600       128
    22.0800       120
    22.1000       110
    22.1200       102
    22.1400       132
    22.1600       108
    22.1800       134
    22.2000       114
    22.2200       114
    22.2400       124
    22.2600       124
    22.2800       164
    22.3000       122
    22.3200       134
    22.3400       134
    22.3600       146
    22.3800       116
    22.4000       158
    22.4200       162
    22.4400       154
    22.4600       152
    22.4800       174
    22.5000       144
    22.5200       152
    22.5400       146
    22.5600       140
    22.5800       140
    22.6000       120
    22.6200       132
    22.6400       150
    22.6600       130
    22.6800       112
    22.7000       134
    22.7200       132
    22.7400       134
    22.7600       124
    22.7800       146
    22.8000       134
    22.8200       154
    22.8400       146
    22.8600       180
    22.8800       134
    22.9000       184
    22.9200       178
    22.9400       168
    22.9600       174
    22.9800       182
    23.0000       174
    23.0200       180
    23.0400       196
    23.0600       182
    23.0800       212
    23.1000       188
    23.1200       188
    23.1400       204
    23.1600       170
    23.1800       174
    23.2000       186
    23.2200       188
    23.2400       162
    23.2600       178
    23.2800       204
    23.3000       190
    23.3200       234
    23.3400       222
    23.3600       212
    23.3800       234
    23.4000       240
    23.4200       236
    23.4400       268
    23.4600       244
    23.4800       216
    23.5000       220
    23.5200       218
    23.5400       186
    23.5600       188
    23.5800       176
    23.6000       180
    23.6200       186
    23.6400       150
    23.6600       188
    23.6800       186
    23.7000       172
    23.7200       168
    23.7400       182
    23.7600       176
    23.7800       176
    23.8000       170
    23.8200       132
    23.8400       152
    23.8600       152
    23.8800       166
    23.9000       168
    23.9200       132
    23.9400       142
    23.9600       136
    23.9800       150
    24.0000       122
    24.0200       136
    24.0400       144
    24.0600       138
    24.0800       106
    24.1000       122
    24.1200       128
    24.1400       158
    24.1600       110
    24.1800       148
    24.2000       138
    24.2200       134
    24.2400       154
    24.2600       164
    24.2800       152
    24.3000       150
    24.3200       154
    24.3400       176
    24.3600       168
    24.3800       210
    24.4000       202
    24.4200       236
    24.4400       238
    24.4600       246
    24.4800       278
    24.5000       274
    24.5200       320
    24.5400       328
    24.5600       380
    24.5800       422
    24.6000       484
    24.6200       434
    24.6400       574
    24.6600       602
    24.6800       716
    24.7000       814
    24.7200       862
    24.7400       936
    24.7600      1142
    24.7800      1204
    24.8000      1346
    24.8200      1468
    24.8400      1428
    24.8600      1432
    24.8800      1474
    24.9000      1274
    24.9200      1208
    24.9400      1030
    24.9600       874
    24.9800       778
    25.0000       652
    25.0200       538
    25.0400       480
    25.0600       422
    25.0800       342
    25.1000       334
    25.1200       276
    25.1400       270
    25.1600       228
    25.1800       238
    25.2000       222
    25.2200       194
    25.2400       192
    25.2600       178
    25.2800       168
    25.3000       174
    25.3200       154
    25.3400       154
    25.3600       170
    25.3800       166
    25.4000       160
    25.4200       160
    25.4400       154
    25.4600       184
    25.4800       182
    25.5000       188
    25.5200       164
    25.5400       174
    25.5600       186
    25.5800       200
    25.6000       212
    25.6200       178
    25.6400       190
    25.6600       196
    25.6800       158
    25.7000       176
    25.7200       130
    25.7400       140
    25.7600       142
    25.7800       158
    25.8000       144
    25.8200       144
    25.8400       124
    25.8600       132
    25.8800       130
    25.9000       128
    25.9200       132
    25.9400       128
    25.9600        90
    25.9800       144
    26.0000       124
    26.0200       134
    26.0400       112
    26.0600       140
    26.0800       122
    26.1000       134
    26.1200       150
    26.1400       132
    26.1600       146
    26.1800       146
    26.2000       170
    26.2200       142
    26.2400       166
    26.2600       154
    26.2800       176
    26.3000       186
    26.3200       220
    26.3400       218
    26.3600       166
    26.3800       200
    26.4000       188
    26.4200       206
    26.4400       176
    26.4600       232
    26.4800       232
    26.5000       226
    26.5200       248
    26.5400       278
    26.5600       276
    26.5800       320
    26.6000       302
    26.6200       322
    26.6400       340
    26.6600       358
    26.6800       384
    26.7000       412
    26.7200       408
    26.7400       422
    26.7600       404
    26.7800       434
    26.8000       364
    26.8200       376
    26.8400       368
    26.8600       338
    26.8800       284
    26.9000       320
    26.9200       270
    26.9400       274
    26.9600       258
    26.9800       232
    27.0000       234
    27.0200       242
    27.0400       222
    27.0600       232
    27.0800       230
    27.1000       204
    27.1200       192
    27.1400       174
    27.1600       204
    27.1800       188
    27.2000       172
    27.2200       140
    27.2400       166
    27.2600       170
    27.2800       174
    27.3000       156
    27.3200       194
    27.3400       194
    27.3600       208
    27.3800       202
    27.4000       228
    27.4200       216
    27.4400       238
    27.4600       236
    27.4800       262
    27.5000       244
    27.5200       242
    27.5400       200
    27.5600       230
    27.5800       208
    27.6000       206
    27.6200       176
    27.6400       164
    27.6600       160
    27.6800       132
    27.7000       132
    27.7200       134
    27.7400       124
    27.7600       126
    27.7800       122
    27.8000       106
    27.8200       114
    27.8400       116
    27.8600       106
    27.8800       108
    27.9000        90
    27.9200        90
    27.9400        92
    27.9600        62
    27.9800        64
    28.0000        86
    28.0200        96
    28.0400        70
    28.0600        90
    28.0800        64
    28.1000        96
    28.1200        80
    28.1400        82
    28.1600        90
    28.1800        88
    28.2000        72
    28.2200        98
    28.2400        82
    28.2600        88
    28.2800        96
    28.3000        96
    28.3200        80
    28.3400        74
    28.3600       116
    28.3800        88
    28.4000        90
    28.4200        88
    28.4400        90
    28.4600        80
    28.4800        92
    28.5000        74
    28.5200        68
    28.5400        82
    28.5600        82
    28.5800        84
    28.6000        94
    28.6200        84
    28.6400       106
    28.6600        94
    28.6800        78
    28.7000        84
    28.7200        84
    28.7400        70
    28.7600        92
    28.7800        68
    28.8000        74
    28.8200        82
    28.8400        76
    28.8600        76
    28.8800        82
    28.9000        64
    28.9200        74
    28.9400        60
    28.9600        62
    28.9800        80
    29.0000        84
    29.0200        62
    29.0400        62
    29.0600        60
    29.0800        74
    29.1000        62
    29.1200        72
    29.1400        44
    29.1600        70
    29.1800        68
    29.2000        68
    29.2200        66
    29.2400        60
    29.2600        70
    29.2800        68
    29.3000        72
    29.3200        56
    29.3400        58
    29.3600        76
    29.3800        62
    29.4000        68
    29.4200        78
    29.4400        78
    29.4600       100
    29.4800        98
    29.5000        76
    29.5200       102
    29.5400        98
    29.5600       116
    29.5800       100
    29.6000       140
    29.6200       142
    29.6400       156
    29.6600       144
    29.6800       158
    29.7000       186
    29.7200       162
    29.7400       156
    29.7600       168
    29.7800       172
    29.8000       186
    29.8200       178
    29.8400       156
    29.8600       170
    29.8800       134
    29.9000       110
    29.9200       128
    29.9400       128
    29.9600       100
    29.9800       100
    30.0000        96
    30.0200       122
    30.0400        74
    30.0600        72
    30.0800        90
    30.1000        94
    30.1200        88
    30.1400        86
    30.1600        84
    30.1800        86
    30.2000        92
    30.2200        66
    30.2400        74
    30.2600        66
    30.2800        80
    30.3000        64
    30.3200        76
    30.3400        92
    30.3600        78
    30.3800        88
    30.4000        66
    30.4200        64
    30.4400        76
    30.4600        68
    30.4800        62
    30.5000        82
    30.5200        78
    30.5400        80
    30.5600        78
    30.5800        84
    30.6000       100
    30.6200        86
    30.6400       114
    30.6600       112
    30.6800       114
    30.7000       100
    30.7200       128
    30.7400       112
    30.7600       122
    30.7800       110
    30.8000       130
    30.8200       128
    30.8400        94
    30.8600        90
    30.8800        90
    30.9000        82
    30.9200        92
    30.9400        76
    30.9600        82
    30.9800        72
    31.0000        74
    31.0200        76
    31.0400        72
    31.0600        76
    31.0800        64
    31.1000        72
    31.1200        74
    31.1400        74
    31.1600        62
    31.1800        76
    31.2000        86
    31.2200        54
    31.2400        76
    31.2600        68
    31.2800        66
    31.3000        72
    31.3200        70
    31.3400        72
    31.3600        62
    31.3800        62
    31.4000        62
    31.4200        52
    31.4400        54
    31.4600        56
    31.4800        66
    31.5000        46
    31.5200        64
    31.5400        52
    31.5600        62
    31.5800        68
    31.6000        66
    31.6200        48
    31.6400        64
    31.6600        52
    31.6800        64
    31.7000        58
    31.7200        54
    31.7400        58
    31.7600        74
    31.7800        80
    31.8000        70
    31.8200        58
    31.8400        70
    31.8600        66
    31.8800        66
    31.9000        82
    31.9200        72
    31.9400        68
    31.9600        74
    31.9800        70
    32.0000        60
    32.0200        68
    32.0400        76
    32.0600        78
    32.0800        84
    32.1000        68
    32.1200        94
    32.1400        76
    32.1600        78
    32.1800        86
    32.2000        86
    32.2200        76
    32.2400        96
    32.2600        90
    32.2800        94
    32.3000       102
    32.3200        92
    32.3400       100
    32.3600        90
    32.3800        92
    32.4000        88
    32.4200        84
    32.4400        76
    32.4600        80
    32.4800        78
    32.5000        78
    32.5200        78
    32.5400        66
    32.5600        68
    32.5800        86
    32.6000        62
    32.6200        52
    32.6400        62
    32.6600        62
    32.6800        54
    32.7000        60
    32.7200        56
    32.7400        50
    32.7600        46
    32.7800        38
    32.8000        68
    32.8200        54
    32.8400        58
    32.8600        58
    32.8800        48
    32.9000        50
    32.9200        50
    32.9400        40
    32.9600        44
    32.9800        60
    33.0000        52
    33.0200        62
    33.0400        44
    33.0600        50
    33.0800        46
    33.1000        50
    33.1200        54
    33.1400        46
    33.1600        56
    33.1800        46
    33.2000        42
    33.2200        52
    33.2400        38
    33.2600        46
    33.2800        40
    33.3000        48
    33.3200        54
    33.3400        64
    33.3600        48
    33.3800        52
    33.4000        44
    33.4200        48
    33.4400        60
    33.4600        46
    33.4800        52
    33.5000        46
    33.5200        56
    33.5400        52
    33.5600        64
    33.5800        38
    33.6000        34
    33.6200        50
    33.6400        60
    33.6600        50
    33.6800        52
    33.7000        48
    33.7200        42
    33.7400        52
    33.7600        48
    33.7800        52
    33.8000        46
    33.8200        40
    33.8400        60
    33.8600        46
    33.8800        46
    33.9000        50
    33.9200        44
    33.9400        40
    33.9600        50
    33.9800        64
    34.0000        42
    34.0200        56
    34.0400        60
    34.0600        56
    34.0800        64
    34.1000        72
    34.1200        54
    34.1400        68
    34.1600        68
    34.1800        54
    34.2000        68
    34.2200        86
    34.2400        82
    34.2600       104
    34.2800        76
    34.3000        82
    34.3200        86
    34.3400        92
    34.3600       100
    34.3800        88
    34.4000        90
    34.4200        84
    34.4400       106
    34.4600        98
    34.4800       126
    34.5000       106
    34.5200       100
    34.5400       126
    34.5600       118
    34.5800       136
    34.6000       128
    34.6200       124
    34.6400       132
    34.6600       172
    34.6800       138
    34.7000       150
    34.7200       160
    34.7400       156
    34.7600       150
    34.7800       178
    34.8000       202
    34.8200       202
    34.8400       212
    34.8600       218
    34.8800       232
    34.9000       228
    34.9200       254
    34.9400       230
    34.9600       278
    34.9800       248
    35.0000       262
    35.0200       254
    35.0400       224
    35.0600       208
    35.0800       220
    35.1000       202
    35.1200       208
    35.1400       202
    35.1600       176
    35.1800       172
    35.2000       160
    35.2200       190
    35.2400       150
    35.2600       158
    35.2800       162
    35.3000       182
    35.3200       170
    35.3400       166
    35.3600       190
    35.3800       190
    35.4000       198
    35.4200       186
    35.4400       168
    35.4600       202
    35.4800       136
    35.5000       190
    35.5200       176
    35.5400       132
    35.5600       150
    35.5800       178
    35.6000       126
    35.6200       178
    35.6400       154
    35.6600       112
    35.6800       124
    35.7000       146
    35.7200       186
    35.7400       158
    35.7600       176
    35.7800       170
    35.8000       190
    35.8200       226
    35.8400       204
    35.8600       216
    35.8800       252
    35.9000       250
    35.9200       224
    35.9400       210
    35.9600       220
    35.9800       208
    36.0000       214
    36.0200       184
    36.0400       172
    36.0600       158
    36.0800       142
    36.1000       138
    36.1200       130
    36.1400       108
    36.1600       110
    36.1800       100
    36.2000       110
    36.2200        94
    36.2400        84
    36.2600        80
    36.2800        90
    36.3000        76
    36.3200        88
    36.3400        86
    36.3600        72
    36.3800        76
    36.4000        76
    36.4200       106
    36.4400        82
    36.4600        68
    36.4800        76
    36.5000        74
    36.5200        68
    36.5400        76
    36.5600        76
    36.5800        70
    36.6000        70
    36.6200        54
    36.6400        72
    36.6600        80
    36.6800        66
    36.7000        72
    36.7200        80
    36.7400        80
    36.7600        54
    36.7800        54
    36.8000        46
    36.8200        76
    36.8400        76
    36.8600        76
    36.8800        68
    36.9000        78
    36.9200        68
    36.9400        70
    36.9600        76
    36.9800        72
    37.0000        92
    37.0200        96
    37.0400        68
    37.0600        96
    37.0800        82
    37.1000        86
    37.1200        90
    37.1400       104
    37.1600        76
    37.1800        82
    37.2000        82
    37.2200        62
    37.2400        92
    37.2600        92
    37.2800        94
    37.3000       108
    37.3200        96
    37.3400        94
    37.3600       112
    37.3800       100
    37.4000       106
    37.4200       124
    37.4400       106
    37.4600       128
    37.4800       152
    37.5000       134
    37.5200       168
    37.5400       154
    37.5600       196
    37.5800       224
    37.6000       202
    37.6200       218
    37.6400       230
    37.6600       270
    37.6800       212
    37.7000       270
    37.7200       236
    37.7400       232
    37.7600       200
    37.7800       230
    37.8000       160
    37.8200       164
    37.8400       152
    37.8600       138
    37.8800       134
    37.9000       140
    37.9200       120
    37.9400       120
    37.9600       120
    37.9800       148
    38.0000       124
    38.0200       118
    38.0400        98
    38.0600       122
    38.0800       158
    38.1000       142
    38.1200       158
    38.1400       146
    38.1600       180
    38.1800       194
    38.2000       196
    38.2200       214
    38.2400       230
    38.2600       254
    38.2800       272
    38.3000       286
    38.3200       286
    38.3400       296
    38.3600       286
    38.3800       316
    38.4000       322
    38.4200       320
    38.4400       310
    38.4600       280
    38.4800       270
    38.5000       278
    38.5200       238
    38.5400       258
    38.5600       252
    38.5800       216
    38.6000       210
    38.6200       210
    38.6400       166
    38.6600       134
    38.6800       140
    38.7000       166
    38.7200       124
    38.7400       162
    38.7600       160
    38.7800       130
    38.8000       126
    38.8200       118
    38.8400       114
    38.8600       122
    38.8800       120
    38.9000       128
    38.9200       124
    38.9400       128
    38.9600       126
    38.9800       138
    39.0000       138
    39.0200       132
    39.0400       136
    39.0600       134
    39.0800       166
    39.1000       174
    39.1200       170
    39.1400       218
    39.1600       174
    39.1800       200
    39.2000       198
    39.2200       212
    39.2400       200
    39.2600       192
    39.2800       210
    39.3000       176
    39.3200       170
    39.3400       170
    39.3600       152
    39.3800       144
    39.4000       120
    39.4200       126
    39.4400       122
    39.4600        94
    39.4800        98
    39.5000        98
    39.5200        68
    39.5400        82
    39.5600        70
    39.5800        82
    39.6000        68
    39.6200        70
    39.6400        68
    39.6600        70
    39.6800        74
    39.7000        78
    39.7200        66
    39.7400        64
    39.7600        54
    39.7800        70
    39.8000        82
    39.8200        74
    39.8400        74
    39.8600        54
    39.8800        70
    39.9000        66
    39.9200        74
    39.9400        72
    39.9600        76
    39.9800        68
    40.0000        64
    40.0200        68
    40.0400        74
    40.0600        80
    40.0800        72
    40.1000        60
    40.1200        70
    40.1400        58
    40.1600        74
    40.1800        64
    40.2000        68
    40.2200        78
    40.2400        58
    40.2600        74
    40.2800        56
    40.3000        76
    40.3200        68
    40.3400        60
    40.3600        62
    40.3800        70
    40.4000        62
    40.4200        60
    40.4400        50
    40.4600        54
    40.4800        58
    40.5000        62
    40.5200        62
    40.5400        62
    40.5600        66
    40.5800        62
    40.6000        58
    40.6200        66
    40.6400        66
    40.6600        76
    40.6800        60
    40.7000        54
    40.7200        70
    40.7400        74
    40.7600        68
    40.7800        74
    40.8000        52
    40.8200        66
    40.8400        68
    40.8600        74
    40.8800        74
    40.9000        72
    40.9200        76
    40.9400        70
    40.9600        74
    40.9800        56
    41.0000        78
    41.0200        88
    41.0400        82
    41.0600        66
    41.0800        72
    41.1000        84
    41.1200        48
    41.1400        74
    41.1600        82
    41.1800        78
    41.2000        74
    41.2200        68
    41.2400        78
    41.2600        76
    41.2800        82
    41.3000        98
    41.3200        72
    41.3400        90
    41.3600        64
    41.3800       100
    41.4000        82
    41.4200        82
    41.4400        72
    41.4600        92
    41.4800        88
    41.5000        82
    41.5200        88
    41.5400        82
    41.5600        84
    41.5800        92
    41.6000        90
    41.6200        86
    41.6400        88
    41.6600        86
    41.6800        90
    41.7000        88
    41.7200        90
    41.7400        90
    41.7600        88
    41.7800        88
    41.8000        76
    41.8200        72
    41.8400        94
    41.8600        68
    41.8800        86
    41.9000        60
    41.9200        80
    41.9400        60
    41.9600        50
    41.9800        68
    42.0000        56
    42.0200        70
    42.0400        58
    42.0600        78
    42.0800        78
    42.1000        70
    42.1200        72
    42.1400        64
    42.1600        48
    42.1800        86
    42.2000        66
    42.2200        76
    42.2400        70
    42.2600        82
    42.2800        76
    42.3000        84
    42.3200        78
    42.3400        78
    42.3600        90
    42.3800        90
    42.4000        82
    42.4200        86
    42.4400        96
    42.4600        82
    42.4800        82
    42.5000        82
    42.5200        74
    42.5400        94
    42.5600        80
    42.5800        64
    42.6000        82
    42.6200        78
    42.6400        70
    42.6600        62
    42.6800        62
    42.7000        52
    42.7200        56
    42.7400        50
    42.7600        66
    42.7800        62
    42.8000        60
    42.8200        54
    42.8400        48
    42.8600        46
    42.8800        40
    42.9000        48
    42.9200        46
    42.9400        46
    42.9600        56
    42.9800        46
    43.0000        42
    43.0200        36
    43.0400        42
    43.0600        48
    43.0800        52
    43.1000        44
    43.1200        56
    43.1400        50
    43.1600        46
    43.1800        50
    43.2000        44
    43.2200        56
    43.2400        62
    43.2600        46
    43.2800        38
    43.3000        42
    43.3200        42
    43.3400        32
    43.3600        36
    43.3800        38
    43.4000        52
    43.4200        48
    43.4400        46
    43.4600        52
    43.4800        48
    43.5000        46
    43.5200        56
    43.5400        52
    43.5600        56
    43.5800        58
    43.6000        50
    43.6200        74
    43.6400        60
    43.6600        56
    43.6800        62
    43.7000        64
    43.7200        68
    43.7400        54
    43.7600        54
    43.7800        60
    43.8000        48
    43.8200        58
    43.8400        70
    43.8600        62
    43.8800        56
    43.9000        44
    43.9200        50
    43.9400        60
    43.9600        64
    43.9800        64
    44.0000        64
    44.0200        62
    44.0400        60
    44.0600        50
    44.0800        52
    44.1000        34
    44.1200        52
    44.1400        50
    44.1600        48
    44.1800        44
    44.2000        50
    44.2200        48
    44.2400        60
    44.2600        54
    44.2800        42
    44.3000        50
    44.3200        48
    44.3400        48
    44.3600        38
    44.3800        36
    44.4000        46
    44.4200        42
    44.4400        54
    44.4600        60
    44.4800        46
    44.5000        54
    44.5200        54
    44.5400        54
    44.5600        42
    44.5800        68
    44.6000        42
    44.6200        50
    44.6400        64
    44.6600        46
    44.6800        54
    44.7000        68
    44.7200        52
    44.7400        66
    44.7600        62
    44.7800        52
    44.8000        54
    44.8200        84
    44.8400        68
    44.8600        88
    44.8800        72
    44.9000        58
    44.9200        58
    44.9400        96
    44.9600        56
    44.9800        62
    45.0000        90
    45.0200        76
    45.0400        96
    45.0600        78
    45.0800        96
    45.1000        82
    45.1200        92
    45.1400        96
    45.1600       134
    45.1800       106
    45.2000       124
    45.2200       120
    45.2400       136
    45.2600       114
    45.2800       130
    45.3000       162
    45.3200       176
    45.3400       132
    45.3600       158
    45.3800       160
    45.4000       186
    45.4200       174
    45.4400       150
    45.4600       154
    45.4800       156
    45.5000       156
    45.5200       128
    45.5400       134
    45.5600       142
    45.5800       132
    45.6000       128
    45.6200       134
    45.6400       138
    45.6600       128
    45.6800       132
    45.7000       130
    45.7200       116
    45.7400       106
    45.7600       120
    45.7800       104
    45.8000       102
    45.8200       110
    45.8400       104
    45.8600        82
    45.8800       120
    45.9000       100
    45.9200       116
    45.9400       102
    45.9600        92
    45.9800       122
    46.0000        98
    46.0200        82
    46.0400       108
    46.0600        76
    46.0800        74
    46.1000        78
    46.1200        68
    46.1400        60
    46.1600        60
    46.1800        68
    46.2000        62
    46.2200        56
    46.2400        72
    46.2600        52
    46.2800        62
    46.3000        78
    46.3200        66
    46.3400        78
    46.3600        50
    46.3800        76
    46.4000        74
    46.4200        58
    46.4400        60
    46.4600        80
    46.4800        78
    46.5000        56
    46.5200        56
    46.5400        92
    46.5600        78
    46.5800        84
    46.6000        64
    46.6200        82
    46.6400        64
    46.6600        78
    46.6800        82
    46.7000       116
    46.7200        78
    46.7400        92
    46.7600        94
    46.7800       102
    46.8000       112
    46.8200        94
    46.8400        94
    46.8600       120
    46.8800        90
    46.9000       116
    46.9200       106
    46.9400       102
    46.9600       114
    46.9800        90
    47.0000        92
    47.0200        74
    47.0400        94
    47.0600        84
    47.0800        88
    47.1000        84
    47.1200        68
    47.1400        70
    47.1600        68
    47.1800        70
    47.2000        66
    47.2200        60
    47.2400        64
    47.2600        56
    47.2800        80
    47.3000        74
    47.3200        70
    47.3400        64
    47.3600        64
    47.3800        58
    47.4000        68
    47.4200        80
    47.4400        74
    47.4600        62
    47.4800        74
    47.5000        76
    47.5200        68
    47.5400        64
    47.5600        70
    47.5800        48
    47.6000        48
    47.6200        36
    47.6400        64
    47.6600        56
    47.6800        56
    47.7000        64
    47.7200        70
    47.7400        62
    47.7600        70
    47.7800        66
    47.8000        82
    47.8200        64
    47.8400        58
    47.8600        62
    47.8800        78
    47.9000        78
    47.9200        58
    47.9400        72
    47.9600        66
    47.9800        48
    48.0000        76
    48.0200        64
    48.0400        68
    48.0600        64
    48.0800        66
    48.1000        56
    48.1200        76
    48.1400        78
    48.1600        66
    48.1800        62
    48.2000        56
    48.2200        56
    48.2400        62
    48.2600        46
    48.2800        72
    48.3000        54
    48.3200        68
    48.3400        66
    48.3600        58
    48.3800        44
    48.4000        64
    48.4200        56
    48.4400        52
    48.4600        46
    48.4800        44
    48.5000        36
    48.5200        56
    48.5400        50
    48.5600        60
    48.5800        56
    48.6000        46
    48.6200        56
    48.6400        50
    48.6600        56
    48.6800        60
    48.7000        64
    48.7200        44
    48.7400        56
    48.7600        56
    48.7800        56
    48.8000        50
    48.8200        56
    48.8400        56
    48.8600        62
    48.8800        54
    48.9000        60
    48.9200        64
    48.9400        62
    48.9600        56
    48.9800        66
    49.0000        50
    49.0200        74
    49.0400        68
    49.0600        68
    49.0800        70
    49.1000        76
    49.1200        64
    49.1400        88
    49.1600        72
    49.1800        76
    49.2000        72
    49.2200        76
    49.2400        80
    49.2600        64
    49.2800        84
    49.3000        84
    49.3200        82
    49.3400        80
    49.3600        88
    49.3800        72
    49.4000        68
    49.4200        80
    49.4400        94
    49.4600        80
    49.4800        86
    49.5000        90
    49.5200        92
    49.5400        78
    49.5600        62
    49.5800        90
    49.6000        62
    49.6200        66
    49.6400        70
    49.6600        58
    49.6800        72
    49.7000        62
    49.7200        66
    49.7400        56
    49.7600        54
    49.7800        54
    49.8000        48
    49.8200        62
    49.8400        40
    49.8600        40
    49.8800        58
    49.9000        54
    49.9200        66
    49.9400        42
    49.9600        42
    49.9800        40
    50.0000        56
    50.0200        50
    50.0400        60
    50.0600        40
    50.0800        40
    50.1000        40
    50.1200        48
    50.1400        68
    50.1600        52
    50.1800        54
    50.2000        56
    50.2200        64
    50.2400        68
    50.2600        62
    50.2800        40
    50.3000        58
    50.3200        52
    50.3400        58
    50.3600        60
    50.3800        52
    50.4000        62
    50.4200        56
    50.4400        66
    50.4600        74
    50.4800        70
    50.5000        94
    50.5200        84
    50.5400        80
    50.5600        74
    50.5800        88
    50.6000        72
    50.6200        84
    50.6400        92
    50.6600        96
    50.6800        96
    50.7000        78
    50.7200       104
    50.7400        94
    50.7600       102
    50.7800       100
    50.8000       100
    50.8200       100
    50.8400       118
    50.8600       122
    50.8800       120
    50.9000       114
    50.9200       114
    50.9400       134
    50.9600       120
    50.9800       134
    51.0000       146
    51.0200       108
    51.0400       122
    51.0600       112
    51.0800       130
    51.1000       114
    51.1200       118
    51.1400       114
    51.1600       106
    51.1800        76
    51.2000        94
    51.2200        84
    51.2400        80
    51.2600        56
    51.2800        66
    51.3000        64
    51.3200        48
    51.3400        60
    51.3600        56
    51.3800        42
    51.4000        50
    51.4200        62
    51.4400        44
    51.4600        40
    51.4800        46
    51.5000        52
    51.5200        56
    51.5400        44
    51.5600        48
    51.5800        50
    51.6000        46
    51.6200        46
    51.6400        42
    51.6600        38
    51.6800        52
    51.7000        36
    51.7200        44
    51.7400        46
    51.7600        26
    51.7800        42
    51.8000        36
    51.8200        36
    51.8400        40
    51.8600        52
    51.8800        42
    51.9000        42
    51.9200        44
    51.9400        34
    51.9600        36
    51.9800        58
    52.0000        44
    52.0200        26
    52.0400        40
    52.0600        42
    52.0800        44
    52.1000        40
    52.1200        42
    52.1400        48
    52.1600        46
    52.1800        40
    52.2000        42
    52.2200        44
    52.2400        44
    52.2600        40
    52.2800        48
    52.3000        60
    52.3200        46
    52.3400        46
    52.3600        54
    52.3800        40
    52.4000        38
    52.4200        42
    52.4400        42
    52.4600        44
    52.4800        52
    52.5000        38
    52.5200        48
    52.5400        50
    52.5600        32
    52.5800        44
    52.6000        44
    52.6200        56
    52.6400        40
    52.6600        54
    52.6800        70
    52.7000        50
    52.7200        44
    52.7400        48
    52.7600        26
    52.7800        40
    52.8000        40
    52.8200        56
    52.8400        52
    52.8600        50
    52.8800        52
    52.9000        52
    52.9200        56
    52.9400        44
    52.9600        40
    52.9800        48
    53.0000        48
    53.0200        40
    53.0400        44
    53.0600        52
    53.0800        46
    53.1000        46
    53.1200        46
    53.1400        50
    53.1600        40
    53.1800        56
    53.2000        38
    53.2200        36
    53.2400        50
    53.2600        42
    53.2800        36
    53.3000        60
    53.3200        54
    53.3400        46
    53.3600        54
    53.3800        50
    53.4000        58
    53.4200        44
    53.4400        34
    53.4600        56
    53.4800        58
    53.5000        40
    53.5200        50
    53.5400        56
    53.5600        62
    53.5800        48
    53.6000        54
    53.6200        54
    53.6400        50
    53.6600        52
    53.6800        50
    53.7000        66
    53.7200        46
    53.7400        60
    53.7600        54
    53.7800        56
    53.8000        52
    53.8200        60
    53.8400        62
    53.8600        50
    53.8800        64
    53.9000        50
    53.9200        56
    53.9400        58
    53.9600        40
    53.9800        58
    54.0000        52
    54.0200        52
    54.0400        70
    54.0600        60
    54.0800        70
    54.1000        58
    54.1200        78
    54.1400        74
    54.1600        86
    54.1800        88
    54.2000        80
    54.2200        80
    54.2400        82
    54.2600        90
    54.2800        84
    54.3000        72
    54.3200        84
    54.3400        88
    54.3600        74
    54.3800        76
    54.4000       108
    54.4200        76
    54.4400        66
    54.4600       102
    54.4800        94
    54.5000       102
    54.5200        86
    54.5400        90
    54.5600       110
    54.5800        90
    54.6000        94
    54.6200       112
    54.6400       104
    54.6600        94
    54.6800        94
    54.7000       110
    54.7200       116
    54.7400       110
    54.7600       126
    54.7800       128
    54.8000       112
    54.8200       138
    54.8400       124
    54.8600       116
    54.8800       150
    54.9000       172
    54.9200       152
    54.9400       164
    54.9600       158
    54.9800       154
    55.0000       158
    55.0200       178
    55.0400       184
    55.0600       162
    55.0800       162
    55.1000       166
    55.1200       168
    55.1400       166
    55.1600       154
    55.1800       170
    55.2000       150
    55.2200       156
    55.2400       154
    55.2600       166
    55.2800       162
    55.3000       152
    55.3200       136
    55.3400       152
    55.3600       166
    55.3800       144
    55.4000       140
    55.4200       122
    55.4400       140
    55.4600       170
    55.4800       130
    55.5000       148
    55.5200       138
    55.5400        86
    55.5600       126
    55.5800       106
    55.6000       134
    55.6200       118
    55.6400       110
    55.6600       106
    55.6800       106
    55.7000        96
    55.7200       112
    55.7400       118
    55.7600       122
    55.7800       112
    55.8000        90
    55.8200       112
    55.8400        96
    55.8600       102
    55.8800        96
    55.9000       104
    55.9200        92
    55.9400        82
    55.9600        98
    55.9800        98
    56.0000        70
    56.0200        68
    56.0400        70
    56.0600        84
    56.0800        90
    56.1000       104
    56.1200        64
    56.1400        86
    56.1600        96
    56.1800        84
    56.2000        96
    56.2200        82
    56.2400        72
    56.2600        80
    56.2800        84
    56.3000        78
    56.3200        98
    56.3400        78
    56.3600       106
    56.3800        86
    56.4000       102
    56.4200       106
    56.4400        84
    56.4600       104
    56.4800        94
    56.5000       102
    56.5200        96
    56.5400        90
    56.5600       110
    56.5800       116
    56.6000       110
    56.6200       104
    56.6400       108
    56.6600       114
    56.6800       108
    56.7000       124
    56.7200       116
    56.7400       106
    56.7600       118
    56.7800       106
    56.8000       104
    56.8200       122
    56.8400       116
    56.8600       104
    56.8800       100
    56.9000        96
    56.9200       104
    56.9400        96
    56.9600        72
    56.9800       104
    57.0000       110
    57.0200        76
    57.0400        70
    57.0600        76
    57.0800        70
    57.1000        62
    57.1200        84
    57.1400        74
    57.1600        76
    57.1800        76
    57.2000        72
    57.2200        58
    57.2400        66
    57.2600        64
    57.2800        72
    57.3000        66
    57.3200        68
    57.3400        62
    57.3600        60
    57.3800        62
    57.4000        64
    57.4200        58
    57.4400        60
    57.4600        60
    57.4800        72
    57.5000        54
    57.5200        60
    57.5400        48
    57.5600        70
    57.5800        46
    57.6000        56
    57.6200        52
    57.6400        52
    57.6600        64
    57.6800        68
    57.7000        64
    57.7200        56
    57.7400        80
    57.7600        60
    57.7800        66
    57.8000        76
    57.8200        64
    57.8400        86
    57.8600        70
    57.8800        76
    57.9000        64
    57.9200        62
    57.9400        54
    57.9600        62
    57.9800        78
    58.0000        72
    58.0200        64
    58.0400        70
    58.0600        64
    58.0800        92
    58.1000        78
    58.1200        80
    58.1400        72
    58.1600        66
    58.1800        88
    58.2000        78
    58.2200        70
    58.2400        78
    58.2600        72
    58.2800        68
    58.3000        78
    58.3200        52
    58.3400        70
    58.3600        64
    58.3800        62
    58.4000        58
    58.4200        58
    58.4400        64
    58.4600        54
    58.4800        56
    58.5000        68
    58.5200        68
    58.5400        68
    58.5600        74
    58.5800        68
    58.6000        60
    58.6200        56
    58.6400        56
    58.6600        58
    58.6800        62
    58.7000        56
    58.7200        50
    58.7400        56
    58.7600        64
    58.7800        52
    58.8000        58
    58.8200        50
    58.8400        66
    58.8600        58
    58.8800        52
    58.9000        44
    58.9200        58
    58.9400        64
    58.9600        60
    58.9800        64
    59.0000        74
    59.0200        60
    59.0400        68
    59.0600        60
    59.0800        52
    59.1000        58
    59.1200        66
    59.1400        58
    59.1600        72
    59.1800        54
    59.2000        56
    59.2200        62
    59.2400        58
    59.2600        54
    59.2800        66
    59.3000        58
    59.3200        54
    59.3400        54
    59.3600        66
    59.3800        68
    59.4000        66
    59.4200        72
    59.4400        56
    59.4600        72
    59.4800        78
    59.5000        80
    59.5200        72
    59.5400        80
    59.5600        88
    59.5800        60
    59.6000        74
    59.6200        86
    59.6400        84
    59.6600        82
    59.6800        60
    59.7000        76
    59.7200        80
    59.7400        92
    59.7600        96
    59.7800       100
    59.8000       102
    59.8200        78
    59.8400        82
    59.8600        66
    59.8800       100
    59.9000       104
    59.9200        82
    59.9400        66
    59.9600        96
    59.9800        78
    60.0000       112
    60.0200       110
    60.0400        94
    60.0600        90
    60.0800        92
    60.1000        92
    60.1200        94
    60.1400        96
    60.1600        98
    60.1800        90
    60.2000        96
    60.2200        70
    60.2400        80
    60.2600        70
    60.2800        84
    60.3000        90
    60.3200        72
    60.3400        70
    60.3600        64
    60.3800        66
    60.4000        74
    60.4200        82
    60.4400        92
    60.4600        74
    60.4800        66
    60.5000        66
    60.5200        62
    60.5400        70
    60.5600        64
    60.5800        80
    60.6000        64
    60.6200        58
    60.6400        62
    60.6600        70
    60.6800        64
    60.7000        70
    60.7200        66
    60.7400        64
    60.7600        62
    60.7800        52
    60.8000        68
    60.8200        64
    60.8400        60
    60.8600        70
    60.8800        74
    60.9000        68
    60.9200        46
    60.9400        68
    60.9600        72
    60.9800        46
    61.0000        62
    61.0200        66
    61.0400        56
    61.0600        50
    61.0800        62
    61.1000        48
    61.1200        68
    61.1400        62
    61.1600        52
    61.1800        52
    61.2000        60
    61.2200        70
    61.2400        60
    61.2600        60
    61.2800        60
    61.3000        50
    61.3200        64
    61.3400        62
    61.3600        62
    61.3800        76
    61.4000        64
    61.4200        90
    61.4400        60
    61.4600        64
    61.4800        78
    61.5000        76
    61.5200        74
    61.5400        66
    61.5600        78
    61.5800        80
    61.6000        86
    61.6200        82
    61.6400        84
    61.6600        80
    61.6800        86
    61.7000        84
    61.7200        86
    61.7400        92
    61.7600       110
    61.7800        98
    61.8000        96
    61.8200        86
    61.8400        92
    61.8600        86
    61.8800       120
    61.9000       106
    61.9200        72
    61.9400        84
    61.9600        92
    61.9800        98
    62.0000       110
    62.0200        94
    62.0400       120
    62.0600       106
    62.0800       142
    62.1000       132
    62.1200       136
    62.1400       148
    62.1600       172
    62.1800       176
    62.2000       170
    62.2200       176
    62.2400       168
    62.2600       174
    62.2800       166
    62.3000       170
    62.3200       166
    62.3400       174
    62.3600       152
    62.3800       164
    62.4000       164
    62.4200       144
    62.4400       130
    62.4600       152
    62.4800       122
    62.5000       124
    62.5200        94
    62.5400       110
    62.5600        98
    62.5800        78
    62.6000        60
    62.6200        84
    62.6400        74
    62.6600        86
    62.6800        64
    62.7000        68
    62.7200        88
    62.7400        78
    62.7600        66
    62.7800        62
    62.8000        48
    62.8200        74
    62.8400        68
    62.8600        56
    62.8800        52
    62.9000        48
    62.9200        68
    62.9400        56
    62.9600        58
    62.9800        60
    63.0000        46
    63.0200        58
    63.0400        52
    63.0600        48
    63.0800        54
    63.1000        54
    63.1200        68
    63.1400        62
    63.1600        68
    63.1800        62
    63.2000        52
    63.2200        58
    63.2400        62
    63.2600        60
    63.2800        58
    63.3000        76
    63.3200        56
    63.3400        58
    63.3600        56
    63.3800        56
    63.4000        78
    63.4200        50
    63.4400        44
    63.4600        60
    63.4800        68
    63.5000        80
    63.5200        78
    63.5400        72
    63.5600        64
    63.5800        60
    63.6000        78
    63.6200        66
    63.6400        76
    63.6600        60
    63.6800        66
    63.7000        62
    63.7200        82
    63.7400        76
    63.7600        76
    63.7800        90
    63.8000        58
    63.8200        86
    63.8400        78
    63.8600        74
    63.8800        72
    63.9000        80
    63.9200        84
    63.9400        76
    63.9600        82
    63.9800        80
    64.0000        84
    64.0200        80
    64.0400        78
    64.0600        88
    64.0800        84
    64.1000        56
    64.1200        74
    64.1400        70
    64.1600        64
    64.1800        78
    64.2000        80
    64.2200        80
    64.2400        60
    64.2600        76
    64.2800        78
    64.3000        92
    64.3200        56
    64.3400        76
    64.3600        60
    64.3800        74
    64.4000        82
    64.4200        60
    64.4400        56
    64.4600        72
    64.4800        68
    64.5000        72
    64.5200        54
    64.5400        58
    64.5600        64
    64.5800        72
    64.6000        68
    64.6200        62
    64.6400        64
    64.6600        56
    64.6800        66
    64.7000        68
    64.7200        66
    64.7400        46
    64.7600        66
    64.7800        64
    64.8000        56
    64.8200        64
    64.8400        60
    64.8600        70
    64.8800        64
    64.9000        64
    64.9200        54
    64.9400        78
    64.9600        86
    64.9800        76
    65.0000        66
