/////////////////////////////////////////////////////////////////////////////////
/// Profile Data Ascii Dump (XRD)                                             ///
/////////////////////////////////////////////////////////////////////////////////

  Group     : Swayze
  Data      : TwinLake 7-2001
  File Name : TwinLake 7-2001.RAW

# Profile Datafile
          comment             = Halloysite 
          date & time         = 08-02-28 06:55:28 

# Measurement Condition
    X-ray tube
          target              = Cu 
          voltage             = 40.0 (kV)
          current             = 30.0 (mA)
    Slits
          divergence slit     = 2.00000 (deg) 
          scatter slit        = 2.00000 (deg) 
          receiving slit      = 0.15000 (mm)  
    Scanning
          drive axis          = Theta-2Theta 
          scan range          =    4.000 -   65.000 
          scan mode           = Continuous Scan 
          scan speed          =   2.0000 (deg/min) 
          sampling pitch      =   0.0200 (deg) 
          preset time         =   0.60 (sec) 

# Data      [ Total No. = 3051 ]
  <2Theta>   <   I   >
     4.0000       208
     4.0200       220
     4.0400       198
     4.0600       218
     4.0800       222
     4.1000       232
     4.1200       212
     4.1400       202
     4.1600       206
     4.1800       204
     4.2000       200
     4.2200       198
     4.2400       214
     4.2600       198
     4.2800       196
     4.3000       212
     4.3200       188
     4.3400       226
     4.3600       196
     4.3800       184
     4.4000       222
     4.4200       182
     4.4400       212
     4.4600       164
     4.4800       180
     4.5000       182
     4.5200       186
     4.5400       190
     4.5600       182
     4.5800       186
     4.6000       204
     4.6200       198
     4.6400       192
     4.6600       198
     4.6800       190
     4.7000       196
     4.7200       170
     4.7400       174
     4.7600       186
     4.7800       204
     4.8000       182
     4.8200       170
     4.8400       196
     4.8600       176
     4.8800       186
     4.9000       190
     4.9200       162
     4.9400       186
     4.9600       194
     4.9800       196
     5.0000       182
     5.0200       186
     5.0400       190
     5.0600       166
     5.0800       186
     5.1000       184
     5.1200       190
     5.1400       180
     5.1600       182
     5.1800       170
     5.2000       180
     5.2200       192
     5.2400       174
     5.2600       196
     5.2800       212
     5.3000       194
     5.3200       198
     5.3400       206
     5.3600       166
     5.3800       170
     5.4000       170
     5.4200       188
     5.4400       194
     5.4600       170
     5.4800       176
     5.5000       166
     5.5200       182
     5.5400       192
     5.5600       198
     5.5800       168
     5.6000       180
     5.6200       184
     5.6400       184
     5.6600       186
     5.6800       164
     5.7000       162
     5.7200       182
     5.7400       188
     5.7600       204
     5.7800       166
     5.8000       176
     5.8200       186
     5.8400       184
     5.8600       178
     5.8800       184
     5.9000       182
     5.9200       148
     5.9400       208
     5.9600       174
     5.9800       162
     6.0000       200
     6.0200       182
     6.0400       176
     6.0600       172
     6.0800       140
     6.1000       186
     6.1200       164
     6.1400       160
     6.1600       168
     6.1800       190
     6.2000       172
     6.2200       166
     6.2400       178
     6.2600       172
     6.2800       164
     6.3000       160
     6.3200       180
     6.3400       168
     6.3600       158
     6.3800       152
     6.4000       162
     6.4200       168
     6.4400       176
     6.4600       156
     6.4800       162
     6.5000       158
     6.5200       152
     6.5400       134
     6.5600       122
     6.5800       160
     6.6000       178
     6.6200       154
     6.6400       158
     6.6600       134
     6.6800       140
     6.7000       154
     6.7200       138
     6.7400       158
     6.7600       156
     6.7800       136
     6.8000       148
     6.8200       136
     6.8400       144
     6.8600       158
     6.8800       144
     6.9000       144
     6.9200       134
     6.9400       132
     6.9600       144
     6.9800       154
     7.0000       134
     7.0200       132
     7.0400       130
     7.0600       124
     7.0800       138
     7.1000       130
     7.1200       144
     7.1400       124
     7.1600       152
     7.1800       136
     7.2000       132
     7.2200       122
     7.2400       150
     7.2600       154
     7.2800       134
     7.3000       138
     7.3200       140
     7.3400       132
     7.3600       126
     7.3800       138
     7.4000       148
     7.4200       138
     7.4400       126
     7.4600       138
     7.4800       112
     7.5000       140
     7.5200       150
     7.5400       132
     7.5600       124
     7.5800       128
     7.6000       126
     7.6200       118
     7.6400       124
     7.6600       138
     7.6800       148
     7.7000       134
     7.7200       148
     7.7400       134
     7.7600       136
     7.7800       126
     7.8000       134
     7.8200       122
     7.8400       138
     7.8600       128
     7.8800       144
     7.9000       142
     7.9200       128
     7.9400       104
     7.9600       126
     7.9800       126
     8.0000       114
     8.0200       134
     8.0400       114
     8.0600       124
     8.0800       114
     8.1000       110
     8.1200       124
     8.1400       114
     8.1600       110
     8.1800       136
     8.2000        96
     8.2200       142
     8.2400       110
     8.2600       130
     8.2800       150
     8.3000       126
     8.3200       146
     8.3400       130
     8.3600       146
     8.3800       122
     8.4000       138
     8.4200       150
     8.4400       132
     8.4600       128
     8.4800       148
     8.5000       144
     8.5200       108
     8.5400       128
     8.5600       126
     8.5800       142
     8.6000       138
     8.6200       146
     8.6400       130
     8.6600       142
     8.6800       138
     8.7000       134
     8.7200       122
     8.7400       120
     8.7600       136
     8.7800       118
     8.8000       126
     8.8200       128
     8.8400       118
     8.8600       108
     8.8800       126
     8.9000       140
     8.9200       126
     8.9400       130
     8.9600       130
     8.9800       138
     9.0000       150
     9.0200       140
     9.0400       132
     9.0600       138
     9.0800       138
     9.1000       122
     9.1200       122
     9.1400       130
     9.1600       156
     9.1800       128
     9.2000       124
     9.2200       118
     9.2400       126
     9.2600       128
     9.2800       114
     9.3000       138
     9.3200       138
     9.3400       128
     9.3600       146
     9.3800       124
     9.4000       132
     9.4200       136
     9.4400       110
     9.4600       130
     9.4800       146
     9.5000       130
     9.5200       146
     9.5400       142
     9.5600       122
     9.5800       104
     9.6000       128
     9.6200       128
     9.6400       130
     9.6600       120
     9.6800       130
     9.7000       124
     9.7200       130
     9.7400       122
     9.7600       120
     9.7800       134
     9.8000       136
     9.8200       130
     9.8400       152
     9.8600       128
     9.8800       122
     9.9000       142
     9.9200       130
     9.9400       154
     9.9600       100
     9.9800       114
    10.0000       128
    10.0200       132
    10.0400       128
    10.0600       130
    10.0800       104
    10.1000       130
    10.1200       124
    10.1400       138
    10.1600       124
    10.1800       104
    10.2000       120
    10.2200       120
    10.2400       138
    10.2600       122
    10.2800       112
    10.3000        98
    10.3200       124
    10.3400       132
    10.3600       142
    10.3800       126
    10.4000       118
    10.4200       130
    10.4400       132
    10.4600       122
    10.4800       136
    10.5000       122
    10.5200       124
    10.5400       110
    10.5600       136
    10.5800       116
    10.6000       150
    10.6200       132
    10.6400       148
    10.6600       128
    10.6800       136
    10.7000       132
    10.7200       152
    10.7400       144
    10.7600       124
    10.7800       134
    10.8000       122
    10.8200       134
    10.8400       130
    10.8600       130
    10.8800       136
    10.9000       134
    10.9200       114
    10.9400       142
    10.9600       126
    10.9800       132
    11.0000       128
    11.0200       114
    11.0400       146
    11.0600       122
    11.0800       116
    11.1000       146
    11.1200       162
    11.1400       156
    11.1600       162
    11.1800       152
    11.2000       142
    11.2200       176
    11.2400       162
    11.2600       154
    11.2800       164
    11.3000       150
    11.3200       166
    11.3400       178
    11.3600       174
    11.3800       174
    11.4000       160
    11.4200       178
    11.4400       190
    11.4600       172
    11.4800       182
    11.5000       196
    11.5200       188
    11.5400       188
    11.5600       198
    11.5800       196
    11.6000       200
    11.6200       210
    11.6400       196
    11.6600       202
    11.6800       198
    11.7000       206
    11.7200       216
    11.7400       214
    11.7600       232
    11.7800       230
    11.8000       226
    11.8200       212
    11.8400       236
    11.8600       240
    11.8800       218
    11.9000       220
    11.9200       238
    11.9400       198
    11.9600       186
    11.9800       198
    12.0000       188
    12.0200       212
    12.0400       208
    12.0600       178
    12.0800       180
    12.1000       192
    12.1200       176
    12.1400       186
    12.1600       202
    12.1800       182
    12.2000       172
    12.2200       158
    12.2400       168
    12.2600       152
    12.2800       148
    12.3000       154
    12.3200       154
    12.3400       142
    12.3600       176
    12.3800       148
    12.4000       118
    12.4200       128
    12.4400       150
    12.4600       120
    12.4800       116
    12.5000       130
    12.5200       114
    12.5400       120
    12.5600       100
    12.5800       114
    12.6000        98
    12.6200       106
    12.6400       108
    12.6600       100
    12.6800        84
    12.7000       124
    12.7200       108
    12.7400       102
    12.7600       112
    12.7800        98
    12.8000       104
    12.8200        90
    12.8400        90
    12.8600        90
    12.8800       106
    12.9000        96
    12.9200       102
    12.9400        82
    12.9600        94
    12.9800        72
    13.0000        88
    13.0200       104
    13.0400        98
    13.0600        96
    13.0800       102
    13.1000        80
    13.1200        80
    13.1400        94
    13.1600        92
    13.1800        76
    13.2000        84
    13.2200       102
    13.2400        88
    13.2600        80
    13.2800        90
    13.3000        88
    13.3200        80
    13.3400        88
    13.3600       102
    13.3800        80
    13.4000        84
    13.4200        88
    13.4400        78
    13.4600        84
    13.4800        92
    13.5000        68
    13.5200        74
    13.5400        92
    13.5600        90
    13.5800        70
    13.6000        66
    13.6200        76
    13.6400        70
    13.6600        98
    13.6800        70
    13.7000        84
    13.7200        64
    13.7400        98
    13.7600        64
    13.7800        76
    13.8000        84
    13.8200        84
    13.8400        78
    13.8600        80
    13.8800        96
    13.9000        80
    13.9200        64
    13.9400        84
    13.9600        82
    13.9800        76
    14.0000        58
    14.0200        84
    14.0400        64
    14.0600        76
    14.0800        82
    14.1000        92
    14.1200        84
    14.1400        72
    14.1600        66
    14.1800        84
    14.2000        68
    14.2200        72
    14.2400        76
    14.2600        74
    14.2800        72
    14.3000        84
    14.3200        72
    14.3400        70
    14.3600        76
    14.3800        66
    14.4000        72
    14.4200        70
    14.4400        68
    14.4600        80
    14.4800        82
    14.5000        58
    14.5200        90
    14.5400        62
    14.5600        72
    14.5800        64
    14.6000        64
    14.6200        86
    14.6400       102
    14.6600        86
    14.6800        78
    14.7000        74
    14.7200        92
    14.7400        76
    14.7600        80
    14.7800        96
    14.8000        90
    14.8200       102
    14.8400       100
    14.8600       108
    14.8800       124
    14.9000       148
    14.9200       126
    14.9400       140
    14.9600       128
    14.9800       124
    15.0000       116
    15.0200        86
    15.0400        96
    15.0600        88
    15.0800        72
    15.1000        86
    15.1200        90
    15.1400        68
    15.1600        86
    15.1800        74
    15.2000        84
    15.2200       118
    15.2400        80
    15.2600        98
    15.2800       112
    15.3000       106
    15.3200       118
    15.3400       114
    15.3600       114
    15.3800       100
    15.4000        98
    15.4200        98
    15.4400        88
    15.4600        76
    15.4800        60
    15.5000        76
    15.5200        70
    15.5400        60
    15.5600        70
    15.5800        78
    15.6000        56
    15.6200        66
    15.6400        66
    15.6600        64
    15.6800        60
    15.7000        72
    15.7200        54
    15.7400        50
    15.7600        66
    15.7800        80
    15.8000        68
    15.8200        54
    15.8400        80
    15.8600        56
    15.8800        60
    15.9000        76
    15.9200        64
    15.9400        70
    15.9600        68
    15.9800        70
    16.0000        60
    16.0200        60
    16.0400        82
    16.0600        56
    16.0800        60
    16.1000        64
    16.1200        42
    16.1400        66
    16.1600        46
    16.1800        76
    16.2000        66
    16.2200        64
    16.2400        50
    16.2600        84
    16.2800        64
    16.3000        70
    16.3200        68
    16.3400        60
    16.3600        36
    16.3800        64
    16.4000        60
    16.4200        68
    16.4400        62
    16.4600        62
    16.4800        64
    16.5000        50
    16.5200        64
    16.5400        60
    16.5600        70
    16.5800        52
    16.6000        64
    16.6200        54
    16.6400        52
    16.6600        46
    16.6800        66
    16.7000        62
    16.7200        44
    16.7400        76
    16.7600        64
    16.7800        44
    16.8000        52
    16.8200        72
    16.8400        58
    16.8600        60
    16.8800        64
    16.9000        64
    16.9200        58
    16.9400        80
    16.9600        82
    16.9800        58
    17.0000        80
    17.0200        66
    17.0400        70
    17.0600        78
    17.0800        70
    17.1000        84
    17.1200        62
    17.1400        76
    17.1600        86
    17.1800       100
    17.2000       102
    17.2200       116
    17.2400       112
    17.2600       146
    17.2800       150
    17.3000       156
    17.3200       178
    17.3400       210
    17.3600       202
    17.3800       210
    17.4000       182
    17.4200       204
    17.4400       168
    17.4600       110
    17.4800       138
    17.5000       138
    17.5200        94
    17.5400        90
    17.5600        98
    17.5800       102
    17.6000        82
    17.6200        90
    17.6400        98
    17.6600        88
    17.6800       112
    17.7000        76
    17.7200        94
    17.7400        88
    17.7600        88
    17.7800        74
    17.8000        60
    17.8200        66
    17.8400        76
    17.8600        62
    17.8800        60
    17.9000        62
    17.9200        52
    17.9400        56
    17.9600        54
    17.9800        50
    18.0000        74
    18.0200        50
    18.0400        60
    18.0600        64
    18.0800        50
    18.1000        52
    18.1200        66
    18.1400        52
    18.1600        52
    18.1800        72
    18.2000        66
    18.2200        54
    18.2400        58
    18.2600        64
    18.2800        60
    18.3000        68
    18.3200        70
    18.3400        56
    18.3600        68
    18.3800        50
    18.4000        60
    18.4200        64
    18.4400        68
    18.4600        48
    18.4800        52
    18.5000        58
    18.5200        82
    18.5400        62
    18.5600        66
    18.5800        64
    18.6000        50
    18.6200        68
    18.6400        66
    18.6600        78
    18.6800        50
    18.7000        68
    18.7200        68
    18.7400        58
    18.7600        60
    18.7800        54
    18.8000        62
    18.8200        54
    18.8400        56
    18.8600        66
    18.8800        64
    18.9000        58
    18.9200        58
    18.9400        64
    18.9600        66
    18.9800        50
    19.0000        62
    19.0200        84
    19.0400        68
    19.0600        64
    19.0800        52
    19.1000        74
    19.1200        52
    19.1400        48
    19.1600        56
    19.1800        48
    19.2000        70
    19.2200        58
    19.2400        80
    19.2600        76
    19.2800        66
    19.3000        82
    19.3200        68
    19.3400        72
    19.3600        72
    19.3800        70
    19.4000        76
    19.4200        74
    19.4400        76
    19.4600        94
    19.4800        84
    19.5000        80
    19.5200        80
    19.5400        78
    19.5600        90
    19.5800       106
    19.6000       108
    19.6200       114
    19.6400       100
    19.6600       126
    19.6800       130
    19.7000       122
    19.7200       120
    19.7400       142
    19.7600       160
    19.7800       170
    19.8000       178
    19.8200       190
    19.8400       192
    19.8600       198
    19.8800       196
    19.9000       200
    19.9200       212
    19.9400       194
    19.9600       204
    19.9800       178
    20.0000       164
    20.0200       178
    20.0400       176
    20.0600       154
    20.0800       172
    20.1000       164
    20.1200       164
    20.1400       160
    20.1600       170
    20.1800       140
    20.2000       142
    20.2200       154
    20.2400       168
    20.2600       150
    20.2800       128
    20.3000       158
    20.3200       126
    20.3400       162
    20.3600       150
    20.3800       138
    20.4000       150
    20.4200       154
    20.4400       150
    20.4600       148
    20.4800       160
    20.5000       166
    20.5200       168
    20.5400       180
    20.5600       146
    20.5800       162
    20.6000       156
    20.6200       168
    20.6400       144
    20.6600       180
    20.6800       176
    20.7000       198
    20.7200       204
    20.7400       190
    20.7600       234
    20.7800       276
    20.8000       266
    20.8200       250
    20.8400       230
    20.8600       196
    20.8800       156
    20.9000       148
    20.9200       142
    20.9400       152
    20.9600       138
    20.9800       138
    21.0000       144
    21.0200       116
    21.0400       124
    21.0600       138
    21.0800       114
    21.1000       124
    21.1200       122
    21.1400       140
    21.1600       116
    21.1800       142
    21.2000       128
    21.2200       134
    21.2400       136
    21.2600       114
    21.2800       122
    21.3000       112
    21.3200       116
    21.3400       120
    21.3600       104
    21.3800       110
    21.4000       120
    21.4200       128
    21.4400       132
    21.4600       128
    21.4800       120
    21.5000       114
    21.5200       114
    21.5400       104
    21.5600       116
    21.5800       108
    21.6000       112
    21.6200       120
    21.6400       116
    21.6600       128
    21.6800       146
    21.7000       112
    21.7200       120
    21.7400       130
    21.7600       120
    21.7800       118
    21.8000       116
    21.8200       136
    21.8400       122
    21.8600       140
    21.8800       110
    21.9000       126
    21.9200       126
    21.9400       120
    21.9600       146
    21.9800       144
    22.0000       144
    22.0200       106
    22.0400       118
    22.0600       102
    22.0800       122
    22.1000       104
    22.1200       124
    22.1400       106
    22.1600       104
    22.1800       120
    22.2000       114
    22.2200       116
    22.2400       102
    22.2600       134
    22.2800       118
    22.3000       106
    22.3200       116
    22.3400       126
    22.3600       124
    22.3800       130
    22.4000       120
    22.4200        94
    22.4400       104
    22.4600       106
    22.4800       136
    22.5000       102
    22.5200       106
    22.5400       110
    22.5600       114
    22.5800       100
    22.6000       100
    22.6200        98
    22.6400       106
    22.6600       118
    22.6800       116
    22.7000       124
    22.7200       114
    22.7400       122
    22.7600        96
    22.7800       126
    22.8000       102
    22.8200       114
    22.8400       122
    22.8600       100
    22.8800       102
    22.9000       100
    22.9200       136
    22.9400       100
    22.9600       108
    22.9800        98
    23.0000        98
    23.0200       104
    23.0400       118
    23.0600       122
    23.0800       108
    23.1000       134
    23.1200       142
    23.1400       118
    23.1600       110
    23.1800        92
    23.2000        80
    23.2200       112
    23.2400       138
    23.2600       128
    23.2800       118
    23.3000       128
    23.3200       138
    23.3400       124
    23.3600       118
    23.3800       152
    23.4000       142
    23.4200       136
    23.4400       116
    23.4600       144
    23.4800       140
    23.5000       110
    23.5200       132
    23.5400       120
    23.5600       146
    23.5800       124
    23.6000       114
    23.6200       132
    23.6400       136
    23.6600       130
    23.6800       144
    23.7000       128
    23.7200       126
    23.7400       138
    23.7600       116
    23.7800       158
    23.8000       148
    23.8200       150
    23.8400       174
    23.8600       154
    23.8800       146
    23.9000       158
    23.9200       172
    23.9400       142
    23.9600       170
    23.9800       144
    24.0000       192
    24.0200       180
    24.0400       140
    24.0600       186
    24.0800       180
    24.1000       158
    24.1200       166
    24.1400       160
    24.1600       198
    24.1800       232
    24.2000       206
    24.2200       226
    24.2400       240
    24.2600       188
    24.2800       202
    24.3000       200
    24.3200       200
    24.3400       214
    24.3600       226
    24.3800       224
    24.4000       250
    24.4200       224
    24.4400       212
    24.4600       204
    24.4800       212
    24.5000       204
    24.5200       212
    24.5400       232
    24.5600       214
    24.5800       204
    24.6000       192
    24.6200       196
    24.6400       170
    24.6600       190
    24.6800       204
    24.7000       218
    24.7200       212
    24.7400       214
    24.7600       218
    24.7800       178
    24.8000       184
    24.8200       204
    24.8400       194
    24.8600       190
    24.8800       188
    24.9000       210
    24.9200       184
    24.9400       180
    24.9600       176
    24.9800       204
    25.0000       174
    25.0200       174
    25.0400       194
    25.0600       150
    25.0800       176
    25.1000       182
    25.1200       180
    25.1400       202
    25.1600       162
    25.1800       166
    25.2000       134
    25.2200       168
    25.2400       174
    25.2600       158
    25.2800       162
    25.3000       146
    25.3200       142
    25.3400       148
    25.3600       148
    25.3800       156
    25.4000       128
    25.4200       132
    25.4400       132
    25.4600       166
    25.4800       144
    25.5000       156
    25.5200       134
    25.5400       130
    25.5600       128
    25.5800       144
    25.6000       144
    25.6200       122
    25.6400       116
    25.6600       126
    25.6800       120
    25.7000       114
    25.7200       132
    25.7400       102
    25.7600       100
    25.7800       110
    25.8000       120
    25.8200       100
    25.8400       112
    25.8600       118
    25.8800       104
    25.9000       108
    25.9200        96
    25.9400        80
    25.9600       100
    25.9800       114
    26.0000        92
    26.0200       128
    26.0400        82
    26.0600       104
    26.0800       110
    26.1000       104
    26.1200       104
    26.1400        98
    26.1600       112
    26.1800       122
    26.2000       140
    26.2200       168
    26.2400       150
    26.2600       158
    26.2800       146
    26.3000       160
    26.3200       122
    26.3400       158
    26.3600       156
    26.3800       146
    26.4000       190
    26.4200       218
    26.4400       240
    26.4600       326
    26.4800       388
    26.5000       526
    26.5200       742
    26.5400       788
    26.5600       702
    26.5800       682
    26.6000       660
    26.6200       558
    26.6400       370
    26.6600       248
    26.6800       218
    26.7000       196
    26.7200       158
    26.7400       110
    26.7600       118
    26.7800       106
    26.8000       100
    26.8200       108
    26.8400        98
    26.8600       100
    26.8800        88
    26.9000        90
    26.9200       102
    26.9400        80
    26.9600        70
    26.9800        86
    27.0000        96
    27.0200        88
    27.0400        98
    27.0600        88
    27.0800        86
    27.1000        76
    27.1200        82
    27.1400        84
    27.1600        86
    27.1800        94
    27.2000        98
    27.2200        98
    27.2400       100
    27.2600        98
    27.2800       106
    27.3000       116
    27.3200       118
    27.3400       118
    27.3600       102
    27.3800       106
    27.4000       108
    27.4200        96
    27.4400       118
    27.4600       118
    27.4800       132
    27.5000       134
    27.5200       126
    27.5400       126
    27.5600       120
    27.5800       148
    27.6000       138
    27.6200       156
    27.6400       204
    27.6600       172
    27.6800       186
    27.7000       252
    27.7200       282
    27.7400       274
    27.7600       248
    27.7800       254
    27.8000       318
    27.8200       354
    27.8400       340
    27.8600       442
    27.8800       588
    27.9000       654
    27.9200       646
    27.9400       554
    27.9600       440
    27.9800       388
    28.0000       366
    28.0200       214
    28.0400       180
    28.0600       156
    28.0800       122
    28.1000        98
    28.1200       104
    28.1400       106
    28.1600       102
    28.1800        98
    28.2000        96
    28.2200        92
    28.2400        92
    28.2600        98
    28.2800        90
    28.3000        76
    28.3200        78
    28.3400        76
    28.3600        78
    28.3800        90
    28.4000        84
    28.4200        76
    28.4400        76
    28.4600        86
    28.4800        86
    28.5000        94
    28.5200       112
    28.5400        94
    28.5600       124
    28.5800       110
    28.6000       126
    28.6200       124
    28.6400       132
    28.6600       174
    28.6800       198
    28.7000       230
    28.7200       206
    28.7400       260
    28.7600       244
    28.7800       268
    28.8000       286
    28.8200       280
    28.8400       296
    28.8600       310
    28.8800       302
    28.9000       344
    28.9200       402
    28.9400       434
    28.9600       458
    28.9800       442
    29.0000       476
    29.0200       460
    29.0400       426
    29.0600       380
    29.0800       358
    29.1000       308
    29.1200       276
    29.1400       228
    29.1600       194
    29.1800       154
    29.2000       142
    29.2200       136
    29.2400       142
    29.2600       128
    29.2800       106
    29.3000       116
    29.3200       124
    29.3400       114
    29.3600       102
    29.3800       100
    29.4000       114
    29.4200       108
    29.4400       104
    29.4600       120
    29.4800       104
    29.5000       120
    29.5200       120
    29.5400       120
    29.5600       120
    29.5800       138
    29.6000       138
    29.6200       130
    29.6400       118
    29.6600       148
    29.6800       156
    29.7000       136
    29.7200       138
    29.7400       140
    29.7600       128
    29.7800       108
    29.8000        94
    29.8200        84
    29.8400        94
    29.8600        82
    29.8800       106
    29.9000        90
    29.9200        84
    29.9400        86
    29.9600        68
    29.9800        88
    30.0000        70
    30.0200        82
    30.0400        60
    30.0600        94
    30.0800        88
    30.1000        82
    30.1200        86
    30.1400       102
    30.1600       118
    30.1800       110
    30.2000        90
    30.2200       102
    30.2400        94
    30.2600        90
    30.2800        96
    30.3000        78
    30.3200        90
    30.3400        86
    30.3600        92
    30.3800        78
    30.4000        80
    30.4200        74
    30.4400        60
    30.4600        62
    30.4800        88
    30.5000        70
    30.5200        56
    30.5400        82
    30.5600        50
    30.5800        70
    30.6000        76
    30.6200        94
    30.6400        94
    30.6600        96
    30.6800        72
    30.7000       114
    30.7200        82
    30.7400        64
    30.7600        78
    30.7800        86
    30.8000        76
    30.8200        76
    30.8400        82
    30.8600        82
    30.8800        94
    30.9000       114
    30.9200       132
    30.9400       120
    30.9600        96
    30.9800       112
    31.0000       128
    31.0200       124
    31.0400       142
    31.0600       122
    31.0800       134
    31.1000       126
    31.1200       106
    31.1400        84
    31.1600       130
    31.1800       102
    31.2000        88
    31.2200        86
    31.2400        68
    31.2600        76
    31.2800        72
    31.3000        70
    31.3200        70
    31.3400        80
    31.3600        72
    31.3800        80
    31.4000        72
    31.4200        64
    31.4400       104
    31.4600        82
    31.4800       106
    31.5000       126
    31.5200       142
    31.5400       154
    31.5600       184
    31.5800       178
    31.6000       194
    31.6200       170
    31.6400       152
    31.6600       174
    31.6800       154
    31.7000       114
    31.7200       126
    31.7400        94
    31.7600        58
    31.7800        70
    31.8000        54
    31.8200        60
    31.8400        50
    31.8600        52
    31.8800        60
    31.9000        60
    31.9200        54
    31.9400        50
    31.9600        48
    31.9800        56
    32.0000        56
    32.0200        50
    32.0400        44
    32.0600        60
    32.0800        52
    32.1000        44
    32.1200        42
    32.1400        46
    32.1600        46
    32.1800        62
    32.2000        58
    32.2200        48
    32.2400        66
    32.2600        60
    32.2800        44
    32.3000        52
    32.3200        50
    32.3400        46
    32.3600        46
    32.3800        48
    32.4000        48
    32.4200        36
    32.4400        42
    32.4600        50
    32.4800        44
    32.5000        54
    32.5200        56
    32.5400        42
    32.5600        40
    32.5800        54
    32.6000        52
    32.6200        58
    32.6400        56
    32.6600        52
    32.6800        36
    32.7000        52
    32.7200        56
    32.7400        52
    32.7600        70
    32.7800        58
    32.8000        40
    32.8200        52
    32.8400        42
    32.8600        42
    32.8800        44
    32.9000        42
    32.9200        60
    32.9400        42
    32.9600        44
    32.9800        56
    33.0000        38
    33.0200        54
    33.0400        42
    33.0600        42
    33.0800        56
    33.1000        62
    33.1200        36
    33.1400        42
    33.1600        50
    33.1800        42
    33.2000        56
    33.2200        54
    33.2400        40
    33.2600        44
    33.2800        36
    33.3000        54
    33.3200        48
    33.3400        54
    33.3600        56
    33.3800        50
    33.4000        46
    33.4200        44
    33.4400        46
    33.4600        54
    33.4800        34
    33.5000        58
    33.5200        38
    33.5400        50
    33.5600        44
    33.5800        68
    33.6000        52
    33.6200        36
    33.6400        54
    33.6600        38
    33.6800        48
    33.7000        56
    33.7200        60
    33.7400        56
    33.7600        70
    33.7800        42
    33.8000        62
    33.8200        66
    33.8400        46
    33.8600        46
    33.8800        46
    33.9000        62
    33.9200        56
    33.9400        48
    33.9600        62
    33.9800        42
    34.0000        60
    34.0200        42
    34.0400        50
    34.0600        48
    34.0800        48
    34.1000        48
    34.1200        56
    34.1400        48
    34.1600        48
    34.1800        66
    34.2000        62
    34.2200        58
    34.2400        58
    34.2600        58
    34.2800        62
    34.3000        46
    34.3200        74
    34.3400        64
    34.3600        48
    34.3800        46
    34.4000        72
    34.4200        48
    34.4400        70
    34.4600        62
    34.4800       100
    34.5000        76
    34.5200        72
    34.5400        50
    34.5600        64
    34.5800        82
    34.6000        88
    34.6200        86
    34.6400       100
    34.6600        90
    34.6800       116
    34.7000        94
    34.7200       102
    34.7400       114
    34.7600       102
    34.7800       112
    34.8000       120
    34.8200       106
    34.8400       114
    34.8600       114
    34.8800       122
    34.9000       132
    34.9200       108
    34.9400       128
    34.9600       130
    34.9800       128
    35.0000       118
    35.0200       124
    35.0400       112
    35.0600       124
    35.0800       146
    35.1000       154
    35.1200       136
    35.1400       148
    35.1600       158
    35.1800       164
    35.2000       184
    35.2200       156
    35.2400       158
    35.2600       156
    35.2800       154
    35.3000       140
    35.3200       142
    35.3400       138
    35.3600       176
    35.3800       134
    35.4000       112
    35.4200       114
    35.4400       106
    35.4600       126
    35.4800        84
    35.5000       108
    35.5200       110
    35.5400       106
    35.5600       110
    35.5800       104
    35.6000       126
    35.6200        90
    35.6400       100
    35.6600        84
    35.6800       102
    35.7000        98
    35.7200       114
    35.7400       100
    35.7600       108
    35.7800       108
    35.8000       114
    35.8200       110
    35.8400        94
    35.8600       110
    35.8800       114
    35.9000       116
    35.9200       100
    35.9400       108
    35.9600       100
    35.9800       108
    36.0000       110
    36.0200       114
    36.0400       102
    36.0600       106
    36.0800       112
    36.1000        98
    36.1200        96
    36.1400        96
    36.1600        74
    36.1800        92
    36.2000        98
    36.2200        82
    36.2400        86
    36.2600        82
    36.2800        86
    36.3000        94
    36.3200        94
    36.3400       106
    36.3600        82
    36.3800       106
    36.4000        98
    36.4200       112
    36.4400       118
    36.4600       110
    36.4800       112
    36.5000       120
    36.5200       130
    36.5400        80
    36.5600       114
    36.5800       116
    36.6000        92
    36.6200        92
    36.6400        82
    36.6600        98
    36.6800        70
    36.7000       112
    36.7200       100
    36.7400        70
    36.7600        92
    36.7800       104
    36.8000        90
    36.8200        94
    36.8400        90
    36.8600        86
    36.8800        96
    36.9000        98
    36.9200       104
    36.9400       104
    36.9600        96
    36.9800       114
    37.0000       110
    37.0200        94
    37.0400       110
    37.0600        98
    37.0800       106
    37.1000        96
    37.1200       100
    37.1400       112
    37.1600        82
    37.1800       104
    37.2000        86
    37.2200       106
    37.2400        88
    37.2600       106
    37.2800        86
    37.3000        94
    37.3200       104
    37.3400       106
    37.3600        98
    37.3800        92
    37.4000       104
    37.4200        90
    37.4400        98
    37.4600       112
    37.4800        94
    37.5000       106
    37.5200       112
    37.5400        90
    37.5600       104
    37.5800       102
    37.6000        94
    37.6200       116
    37.6400       108
    37.6600        96
    37.6800       104
    37.7000        92
    37.7200       118
    37.7400       102
    37.7600       114
    37.7800       110
    37.8000       106
    37.8200       116
    37.8400       108
    37.8600       110
    37.8800       110
    37.9000       124
    37.9200       106
    37.9400       128
    37.9600       118
    37.9800       102
    38.0000       126
    38.0200        94
    38.0400       112
    38.0600       132
    38.0800       118
    38.1000       120
    38.1200       136
    38.1400       118
    38.1600       122
    38.1800       132
    38.2000       118
    38.2200       114
    38.2400       112
    38.2600       116
    38.2800       118
    38.3000       126
    38.3200       120
    38.3400       116
    38.3600       132
    38.3800       156
    38.4000        90
    38.4200        96
    38.4400       126
    38.4600       128
    38.4800       104
    38.5000       100
    38.5200        92
    38.5400       130
    38.5600       112
    38.5800        98
    38.6000       124
    38.6200       104
    38.6400       118
    38.6600       120
    38.6800       102
    38.7000       112
    38.7200       116
    38.7400       104
    38.7600       116
    38.7800       106
    38.8000       102
    38.8200       130
    38.8400       100
    38.8600       108
    38.8800       110
    38.9000       116
    38.9200       132
    38.9400       116
    38.9600       128
    38.9800       138
    39.0000       126
    39.0200       134
    39.0400       150
    39.0600       136
    39.0800       188
    39.1000       190
    39.1200       212
    39.1400       232
    39.1600       208
    39.1800       242
    39.2000       250
    39.2200       260
    39.2400       280
    39.2600       254
    39.2800       192
    39.3000       188
    39.3200       196
    39.3400       178
    39.3600       176
    39.3800       158
    39.4000       174
    39.4200       114
    39.4400       108
    39.4600       126
    39.4800       134
    39.5000       104
    39.5200       112
    39.5400       112
    39.5600        76
    39.5800        90
    39.6000        92
    39.6200        92
    39.6400        86
    39.6600        94
    39.6800        84
    39.7000        78
    39.7200        90
    39.7400        76
    39.7600        70
    39.7800        80
    39.8000        66
    39.8200        68
    39.8400        58
    39.8600        66
    39.8800        68
    39.9000        74
    39.9200        78
    39.9400        84
    39.9600        66
    39.9800        78
    40.0000        82
    40.0200        62
    40.0400        72
    40.0600        74
    40.0800        94
    40.1000        64
    40.1200        86
    40.1400        92
    40.1600       104
    40.1800        98
    40.2000       118
    40.2200        94
    40.2400        92
    40.2600        88
    40.2800        84
    40.3000        84
    40.3200        72
    40.3400        78
    40.3600        96
    40.3800        62
    40.4000        58
    40.4200        62
    40.4400        68
    40.4600        70
    40.4800        64
    40.5000        62
    40.5200        62
    40.5400        64
    40.5600        64
    40.5800        76
    40.6000        72
    40.6200        62
    40.6400        66
    40.6600        66
    40.6800        52
    40.7000        68
    40.7200        60
    40.7400        56
    40.7600        64
    40.7800        62
    40.8000        78
    40.8200        54
    40.8400        70
    40.8600        70
    40.8800        56
    40.9000        74
    40.9200        68
    40.9400        62
    40.9600        72
    40.9800        56
    41.0000        58
    41.0200        66
    41.0400        68
    41.0600        46
    41.0800        46
    41.1000        76
    41.1200        84
    41.1400        94
    41.1600        72
    41.1800        64
    41.2000        74
    41.2200        68
    41.2400        50
    41.2600        70
    41.2800        76
    41.3000        64
    41.3200        72
    41.3400        66
    41.3600        68
    41.3800        56
    41.4000        52
    41.4200        58
    41.4400        64
    41.4600        68
    41.4800        68
    41.5000        70
    41.5200        56
    41.5400        52
    41.5600        62
    41.5800        66
    41.6000        86
    41.6200        68
    41.6400        58
    41.6600        44
    41.6800        58
    41.7000        54
    41.7200        56
    41.7400        60
    41.7600        56
    41.7800        38
    41.8000        62
    41.8200        66
    41.8400        44
    41.8600        50
    41.8800        54
    41.9000        54
    41.9200        40
    41.9400        74
    41.9600        50
    41.9800        44
    42.0000        76
    42.0200        74
    42.0400       110
    42.0600       138
    42.0800       112
    42.1000        74
    42.1200        82
    42.1400        88
    42.1600       118
    42.1800       112
    42.2000        86
    42.2200        92
    42.2400        84
    42.2600        76
    42.2800        94
    42.3000        92
    42.3200        94
    42.3400       122
    42.3600       106
    42.3800       110
    42.4000       100
    42.4200        90
    42.4400        78
    42.4600        78
    42.4800        80
    42.5000        72
    42.5200        92
    42.5400        68
    42.5600        68
    42.5800        66
    42.6000        46
    42.6200        54
    42.6400        48
    42.6600        50
    42.6800        50
    42.7000        46
    42.7200        58
    42.7400        56
    42.7600        72
    42.7800        70
    42.8000        60
    42.8200        68
    42.8400        50
    42.8600        64
    42.8800        50
    42.9000        80
    42.9200        68
    42.9400        66
    42.9600        74
    42.9800        88
    43.0000        68
    43.0200        78
    43.0400        68
    43.0600        56
    43.0800        50
    43.1000        44
    43.1200        50
    43.1400        56
    43.1600        60
    43.1800        48
    43.2000        60
    43.2200        42
    43.2400        56
    43.2600        58
    43.2800        52
    43.3000        54
    43.3200        58
    43.3400        50
    43.3600        56
    43.3800        54
    43.4000        54
    43.4200        50
    43.4400        56
    43.4600        60
    43.4800        60
    43.5000        38
    43.5200        54
    43.5400        58
    43.5600        42
    43.5800        58
    43.6000        52
    43.6200        54
    43.6400        46
    43.6600        64
    43.6800        50
    43.7000        46
    43.7200        48
    43.7400        58
    43.7600        46
    43.7800        46
    43.8000        52
    43.8200        42
    43.8400        52
    43.8600        46
    43.8800        50
    43.9000        50
    43.9200        56
    43.9400        56
    43.9600        42
    43.9800        52
    44.0000        70
    44.0200        56
    44.0400        44
    44.0600        44
    44.0800        48
    44.1000        52
    44.1200        46
    44.1400        36
    44.1600        44
    44.1800        38
    44.2000        40
    44.2200        50
    44.2400        50
    44.2600        50
    44.2800        56
    44.3000        58
    44.3200        62
    44.3400        52
    44.3600        52
    44.3800        52
    44.4000        56
    44.4200        60
    44.4400        60
    44.4600        54
    44.4800        44
    44.5000        54
    44.5200        54
    44.5400        70
    44.5600        60
    44.5800        44
    44.6000        66
    44.6200        62
    44.6400        60
    44.6600        40
    44.6800        48
    44.7000        62
    44.7200        62
    44.7400        72
    44.7600        64
    44.7800        54
    44.8000        58
    44.8200        52
    44.8400        70
    44.8600        68
    44.8800        56
    44.9000        56
    44.9200        68
    44.9400        52
    44.9600        42
    44.9800        78
    45.0000        60
    45.0200        74
    45.0400        84
    45.0600        82
    45.0800        68
    45.1000        72
    45.1200        66
    45.1400        78
    45.1600        88
    45.1800        82
    45.2000        70
    45.2200        78
    45.2400       108
    45.2600        90
    45.2800       114
    45.3000       118
    45.3200       144
    45.3400       130
    45.3600       120
    45.3800       128
    45.4000       114
    45.4200       104
    45.4400       114
    45.4600        96
    45.4800        84
    45.5000        92
    45.5200        90
    45.5400        86
    45.5600        78
    45.5800        94
    45.6000        80
    45.6200        78
    45.6400        86
    45.6600       114
    45.6800        94
    45.7000        86
    45.7200        98
    45.7400        94
    45.7600       118
    45.7800        96
    45.8000        86
    45.8200       118
    45.8400       126
    45.8600       108
    45.8800       118
    45.9000       122
    45.9200       128
    45.9400       122
    45.9600       154
    45.9800       130
    46.0000       162
    46.0200       130
    46.0400       136
    46.0600       150
    46.0800       142
    46.1000       128
    46.1200       110
    46.1400       112
    46.1600        92
    46.1800       106
    46.2000        72
    46.2200        96
    46.2400        74
    46.2600        70
    46.2800        78
    46.3000        62
    46.3200        60
    46.3400        62
    46.3600        64
    46.3800        82
    46.4000        64
    46.4200        76
    46.4400        68
    46.4600        62
    46.4800        62
    46.5000        76
    46.5200        52
    46.5400        80
    46.5600        40
    46.5800        72
    46.6000        60
    46.6200        58
    46.6400        78
    46.6600        60
    46.6800        84
    46.7000        92
    46.7200        80
    46.7400        76
    46.7600        90
    46.7800        70
    46.8000        82
    46.8200        84
    46.8400        84
    46.8600        68
    46.8800        88
    46.9000        82
    46.9200        80
    46.9400        74
    46.9600        76
    46.9800        62
    47.0000        62
    47.0200        62
    47.0400        66
    47.0600        82
    47.0800        70
    47.1000        80
    47.1200        74
    47.1400        72
    47.1600        66
    47.1800        62
    47.2000        74
    47.2200        76
    47.2400        72
    47.2600       102
    47.2800        68
    47.3000        72
    47.3200        76
    47.3400       100
    47.3600        90
    47.3800       104
    47.4000        88
    47.4200        76
    47.4400        80
    47.4600        94
    47.4800        76
    47.5000        80
    47.5200        70
    47.5400        66
    47.5600        50
    47.5800        84
    47.6000        52
    47.6200        66
    47.6400        80
    47.6600        52
    47.6800        64
    47.7000        68
    47.7200        46
    47.7400        68
    47.7600        64
    47.7800        60
    47.8000        60
    47.8200        64
    47.8400        56
    47.8600        62
    47.8800        56
    47.9000        58
    47.9200        52
    47.9400        56
    47.9600        52
    47.9800        40
    48.0000        42
    48.0200        62
    48.0400        60
    48.0600        56
    48.0800        66
    48.1000        48
    48.1200        48
    48.1400        54
    48.1600        48
    48.1800        70
    48.2000        56
    48.2200        54
    48.2400        46
    48.2600        58
    48.2800        56
    48.3000        40
    48.3200        46
    48.3400        62
    48.3600        52
    48.3800        50
    48.4000        58
    48.4200        60
    48.4400        48
    48.4600        50
    48.4800        70
    48.5000        52
    48.5200        56
    48.5400        56
    48.5600        50
    48.5800        62
    48.6000        58
    48.6200        54
    48.6400        48
    48.6600        70
    48.6800        50
    48.7000        46
    48.7200        56
    48.7400        66
    48.7600        56
    48.7800        54
    48.8000        42
    48.8200        66
    48.8400        66
    48.8600        60
    48.8800        70
    48.9000        52
    48.9200        52
    48.9400        52
    48.9600        42
    48.9800        44
    49.0000        60
    49.0200        46
    49.0400        60
    49.0600        48
    49.0800        66
    49.1000        72
    49.1200        64
    49.1400        64
    49.1600        54
    49.1800        40
    49.2000        44
    49.2200        48
    49.2400        52
    49.2600        46
    49.2800        66
    49.3000        48
    49.3200        48
    49.3400        48
    49.3600        46
    49.3800        50
    49.4000        62
    49.4200        46
    49.4400        58
    49.4600        54
    49.4800        52
    49.5000        46
    49.5200        48
    49.5400        62
    49.5600        46
    49.5800        62
    49.6000        60
    49.6200        60
    49.6400        54
    49.6600        50
    49.6800        68
    49.7000        70
    49.7200        62
    49.7400        60
    49.7600        70
    49.7800        72
    49.8000        72
    49.8200        66
    49.8400        68
    49.8600        82
    49.8800        76
    49.9000        96
    49.9200        82
    49.9400        92
    49.9600        84
    49.9800        88
    50.0000        88
    50.0200       106
    50.0400       124
    50.0600       120
    50.0800       110
    50.1000       108
    50.1200       118
    50.1400       120
    50.1600       104
    50.1800       132
    50.2000       134
    50.2200       116
    50.2400       114
    50.2600       102
    50.2800        98
    50.3000       116
    50.3200        90
    50.3400       106
    50.3600        84
    50.3800        68
    50.4000        86
    50.4200        68
    50.4400        90
    50.4600        60
    50.4800        56
    50.5000        70
    50.5200        88
    50.5400        82
    50.5600        68
    50.5800        72
    50.6000        56
    50.6200        52
    50.6400        66
    50.6600        58
    50.6800        56
    50.7000        72
    50.7200        46
    50.7400        46
    50.7600        52
    50.7800        62
    50.8000        66
    50.8200        74
    50.8400        50
    50.8600        50
    50.8800        56
    50.9000        66
    50.9200        52
    50.9400        48
    50.9600        58
    50.9800        50
    51.0000        62
    51.0200        50
    51.0400        44
    51.0600        64
    51.0800        52
    51.1000        74
    51.1200        74
    51.1400        60
    51.1600        64
    51.1800        78
    51.2000        80
    51.2200        62
    51.2400        62
    51.2600        78
    51.2800        68
    51.3000        80
    51.3200        62
    51.3400        62
    51.3600        66
    51.3800        60
    51.4000        66
    51.4200        54
    51.4400        56
    51.4600        70
    51.4800        54
    51.5000        60
    51.5200        56
    51.5400        42
    51.5600        54
    51.5800        72
    51.6000        48
    51.6200        32
    51.6400        64
    51.6600        50
    51.6800        56
    51.7000        48
    51.7200        62
    51.7400        56
    51.7600        46
    51.7800        58
    51.8000        50
    51.8200        56
    51.8400        58
    51.8600        58
    51.8800        60
    51.9000        52
    51.9200        50
    51.9400        56
    51.9600        56
    51.9800        48
    52.0000        60
    52.0200        46
    52.0400        66
    52.0600        56
    52.0800        44
    52.1000        48
    52.1200        44
    52.1400        48
    52.1600        58
    52.1800        50
    52.2000        40
    52.2200        46
    52.2400        56
    52.2600        42
    52.2800        68
    52.3000        48
    52.3200        40
    52.3400        46
    52.3600        62
    52.3800        46
    52.4000        34
    52.4200        42
    52.4400        48
    52.4600        60
    52.4800        44
    52.5000        44
    52.5200        62
    52.5400        46
    52.5600        30
    52.5800        54
    52.6000        46
    52.6200        44
    52.6400        54
    52.6600        44
    52.6800        44
    52.7000        60
    52.7200        46
    52.7400        64
    52.7600        42
    52.7800        46
    52.8000        52
    52.8200        60
    52.8400        54
    52.8600        52
    52.8800        48
    52.9000        68
    52.9200        68
    52.9400        48
    52.9600        58
    52.9800        50
    53.0000        56
    53.0200        52
    53.0400        66
    53.0600        48
    53.0800        56
    53.1000        58
    53.1200        58
    53.1400        62
    53.1600        50
    53.1800        52
    53.2000        64
    53.2200        64
    53.2400        44
    53.2600        60
    53.2800        42
    53.3000        54
    53.3200        62
    53.3400        50
    53.3600        64
    53.3800        66
    53.4000        68
    53.4200        52
    53.4400        72
    53.4600        80
    53.4800        58
    53.5000        66
    53.5200        54
    53.5400        80
    53.5600        70
    53.5800        80
    53.6000        68
    53.6200        54
    53.6400        66
    53.6600        56
    53.6800        70
    53.7000        72
    53.7200        64
    53.7400        58
    53.7600        54
    53.7800        78
    53.8000        60
    53.8200        72
    53.8400        62
    53.8600        68
    53.8800        54
    53.9000        76
    53.9200        72
    53.9400        76
    53.9600        66
    53.9800        60
    54.0000        82
    54.0200        70
    54.0400        62
    54.0600        82
    54.0800        72
    54.1000        88
    54.1200        76
    54.1400        80
    54.1600        76
    54.1800        72
    54.2000        64
    54.2200        76
    54.2400        52
    54.2600        86
    54.2800        80
    54.3000        80
    54.3200        82
    54.3400        56
    54.3600        72
    54.3800        76
    54.4000        76
    54.4200        76
    54.4400        72
    54.4600        68
    54.4800        70
    54.5000        82
    54.5200        90
    54.5400        80
    54.5600        92
    54.5800        88
    54.6000        72
    54.6200        94
    54.6400        76
    54.6600        78
    54.6800        90
    54.7000        86
    54.7200       108
    54.7400       104
    54.7600        88
    54.7800        96
    54.8000        84
    54.8200        72
    54.8400        86
    54.8600        78
    54.8800        76
    54.9000        90
    54.9200        78
    54.9400        74
    54.9600        72
    54.9800        70
    55.0000        88
    55.0200        80
    55.0400        68
    55.0600        64
    55.0800        74
    55.1000        68
    55.1200        86
    55.1400        82
    55.1600        72
    55.1800        78
    55.2000        76
    55.2200        76
    55.2400        94
    55.2600        72
    55.2800        80
    55.3000        80
    55.3200        74
    55.3400        72
    55.3600        72
    55.3800        66
    55.4000        66
    55.4200        74
    55.4400        64
    55.4600        72
    55.4800        68
    55.5000        70
    55.5200        68
    55.5400        70
    55.5600        70
    55.5800        56
    55.6000        68
    55.6200        64
    55.6400        70
    55.6600        60
    55.6800        58
    55.7000        60
    55.7200        58
    55.7400        66
    55.7600        70
    55.7800        52
    55.8000        72
    55.8200        60
    55.8400        54
    55.8600        66
    55.8800        62
    55.9000        62
    55.9200        60
    55.9400        78
    55.9600        54
    55.9800        60
    56.0000        56
    56.0200        64
    56.0400        56
    56.0600        58
    56.0800        66
    56.1000        76
    56.1200        52
    56.1400        74
    56.1600        90
    56.1800        64
    56.2000        68
    56.2200        68
    56.2400        74
    56.2600        74
    56.2800        82
    56.3000        62
    56.3200        64
    56.3400        86
    56.3600        68
    56.3800        80
    56.4000        86
    56.4200        52
    56.4400        70
    56.4600        80
    56.4800        68
    56.5000        68
    56.5200        58
    56.5400        54
    56.5600        68
    56.5800        54
    56.6000        68
    56.6200        64
    56.6400        64
    56.6600        58
    56.6800        52
    56.7000        52
    56.7200        58
    56.7400        62
    56.7600        50
    56.7800        66
    56.8000        62
    56.8200        84
    56.8400        60
    56.8600        54
    56.8800        58
    56.9000        62
    56.9200        62
    56.9400        58
    56.9600        60
    56.9800        60
    57.0000        58
    57.0200        44
    57.0400        50
    57.0600        70
    57.0800        60
    57.1000        54
    57.1200        52
    57.1400        66
    57.1600        60
    57.1800        62
    57.2000        56
    57.2200        40
    57.2400        62
    57.2600        42
    57.2800        52
    57.3000        80
    57.3200        44
    57.3400        58
    57.3600        40
    57.3800        46
    57.4000        56
    57.4200        50
    57.4400        66
    57.4600        58
    57.4800        66
    57.5000        52
    57.5200        58
    57.5400        64
    57.5600        64
    57.5800        50
    57.6000        66
    57.6200        70
    57.6400        66
    57.6600        50
    57.6800        64
    57.7000        70
    57.7200        60
    57.7400        80
    57.7600        72
    57.7800        60
    57.8000        60
    57.8200        64
    57.8400        54
    57.8600        60
    57.8800        50
    57.9000        72
    57.9200        72
    57.9400        48
    57.9600        64
    57.9800        36
    58.0000        64
    58.0200        62
    58.0400        48
    58.0600        56
    58.0800        68
    58.1000        58
    58.1200        52
    58.1400        48
    58.1600        34
    58.1800        58
    58.2000        50
    58.2200        50
    58.2400        64
    58.2600        58
    58.2800        62
    58.3000        54
    58.3200        42
    58.3400        50
    58.3600        44
    58.3800        40
    58.4000        60
    58.4200        56
    58.4400        64
    58.4600        36
    58.4800        38
    58.5000        72
    58.5200        60
    58.5400        56
    58.5600        62
    58.5800        50
    58.6000        50
    58.6200        58
    58.6400        44
    58.6600        62
    58.6800        60
    58.7000        60
    58.7200        54
    58.7400        50
    58.7600        52
    58.7800        60
    58.8000        52
    58.8200        56
    58.8400        52
    58.8600        54
    58.8800        52
    58.9000        50
    58.9200        62
    58.9400        64
    58.9600        54
    58.9800        48
    59.0000        54
    59.0200        46
    59.0400        66
    59.0600        48
    59.0800        50
    59.1000        62
    59.1200        56
    59.1400        70
    59.1600        50
    59.1800        54
    59.2000        58
    59.2200        56
    59.2400        58
    59.2600        58
    59.2800        56
    59.3000        48
    59.3200        62
    59.3400        66
    59.3600        66
    59.3800        70
    59.4000        48
    59.4200        58
    59.4400        64
    59.4600        64
    59.4800        76
    59.5000        62
    59.5200        56
    59.5400        60
    59.5600        58
    59.5800        66
    59.6000        64
    59.6200        68
    59.6400        70
    59.6600        64
    59.6800        60
    59.7000        90
    59.7200        80
    59.7400        96
    59.7600        90
    59.7800       106
    59.8000       116
    59.8200       110
    59.8400       106
    59.8600       128
    59.8800       108
    59.9000       110
    59.9200        98
    59.9400        76
    59.9600        98
    59.9800       102
    60.0000        88
    60.0200       100
    60.0400       108
    60.0600        92
    60.0800        88
    60.1000        98
    60.1200        84
    60.1400        94
    60.1600        82
    60.1800        82
    60.2000        96
    60.2200       106
    60.2400        80
    60.2600        78
    60.2800        94
    60.3000        96
    60.3200        76
    60.3400        90
    60.3600        74
    60.3800        74
    60.4000        72
    60.4200        64
    60.4400        66
    60.4600        70
    60.4800        62
    60.5000        80
    60.5200        72
    60.5400        60
    60.5600        58
    60.5800        50
    60.6000        60
    60.6200        64
    60.6400        56
    60.6600        58
    60.6800        72
    60.7000        52
    60.7200        64
    60.7400        38
    60.7600        74
    60.7800        50
    60.8000        52
    60.8200        44
    60.8400        74
    60.8600        62
    60.8800        64
    60.9000        60
    60.9200        68
    60.9400        62
    60.9600        52
    60.9800        88
    61.0000        68
    61.0200        96
    61.0400        74
    61.0600        68
    61.0800        92
    61.1000        74
    61.1200        86
    61.1400       102
    61.1600       104
    61.1800       116
    61.2000       110
    61.2200       132
    61.2400       106
    61.2600       110
    61.2800       128
    61.3000       112
    61.3200       104
    61.3400       110
    61.3600       130
    61.3800        92
    61.4000        90
    61.4200        96
    61.4400        90
    61.4600        80
    61.4800        86
    61.5000        84
    61.5200        86
    61.5400        78
    61.5600        74
    61.5800        78
    61.6000        64
    61.6200        74
    61.6400        62
    61.6600        70
    61.6800        84
    61.7000        92
    61.7200        86
    61.7400        80
    61.7600        92
    61.7800        74
    61.8000        76
    61.8200        66
    61.8400        90
    61.8600        80
    61.8800        82
    61.9000        82
    61.9200        80
    61.9400        66
    61.9600        82
    61.9800        86
    62.0000        86
    62.0200        82
    62.0400        94
    62.0600        92
    62.0800        80
    62.1000        78
    62.1200        98
    62.1400        88
    62.1600        88
    62.1800        94
    62.2000        88
    62.2200        98
    62.2400       114
    62.2600       100
    62.2800       100
    62.3000       102
    62.3200       118
    62.3400        98
    62.3600       118
    62.3800        94
    62.4000       100
    62.4200       110
    62.4400        90
    62.4600       114
    62.4800       114
    62.5000       100
    62.5200       108
    62.5400        86
    62.5600        98
    62.5800       110
    62.6000       100
    62.6200        90
    62.6400        92
    62.6600       102
    62.6800        96
    62.7000       100
    62.7200        76
    62.7400        80
    62.7600        90
    62.7800        92
    62.8000        92
    62.8200        92
    62.8400        78
    62.8600        96
    62.8800        82
    62.9000        84
    62.9200        82
    62.9400        80
    62.9600        70
    62.9800        74
    63.0000        96
    63.0200        84
    63.0400        84
    63.0600        76
    63.0800        74
    63.1000        68
    63.1200        52
    63.1400        56
    63.1600        82
    63.1800        76
    63.2000        74
    63.2200        72
    63.2400        90
    63.2600        68
    63.2800        58
    63.3000        74
    63.3200        78
    63.3400        70
    63.3600        78
    63.3800        58
    63.4000        66
    63.4200        64
    63.4400        76
    63.4600        68
    63.4800        62
    63.5000        52
    63.5200        66
    63.5400        68
    63.5600        66
    63.5800        60
    63.6000        76
    63.6200       102
    63.6400        84
    63.6600        64
    63.6800        62
    63.7000        62
    63.7200        58
    63.7400        70
    63.7600        78
    63.7800        72
    63.8000        56
    63.8200        74
    63.8400        66
    63.8600        66
    63.8800        92
    63.9000        74
    63.9200        68
    63.9400        56
    63.9600        74
    63.9800        58
    64.0000        58
    64.0200        74
    64.0400        64
    64.0600        58
    64.0800        58
    64.1000        66
    64.1200        60
    64.1400        54
    64.1600        52
    64.1800        46
    64.2000        70
    64.2200        64
    64.2400        46
    64.2600        54
    64.2800        60
    64.3000        50
    64.3200        42
    64.3400        58
    64.3600        50
    64.3800        78
    64.4000        58
    64.4200        64
    64.4400        70
    64.4600        46
    64.4800        62
    64.5000        56
    64.5200        48
    64.5400        72
    64.5600        50
    64.5800        56
    64.6000        54
    64.6200        58
    64.6400        38
    64.6600        50
    64.6800        62
    64.7000        62
    64.7200        62
    64.7400        52
    64.7600        58
    64.7800        64
    64.8000        36
    64.8200        62
    64.8400        54
    64.8600        58
    64.8800        44
    64.9000        64
    64.9200        64
    64.9400        52
    64.9600        48
    64.9800        56
    65.0000        66
