/////////////////////////////////////////////////////////////////////////////////
/// Profile Data Ascii Dump (XRD)                                             ///
/////////////////////////////////////////////////////////////////////////////////

  Group     : Swayze
  Data      : WS 737
  File Name : WS 737.RAW

# Profile Datafile
          comment             = Chabazite 
          date & time         = 08-03-12 06:29:26 

# Measurement Condition
    X-ray tube
          target              = Cu 
          voltage             = 40.0 (kV)
          current             = 30.0 (mA)
    Slits
          divergence slit     = 2.00000 (deg) 
          scatter slit        = 2.00000 (deg) 
          receiving slit      = 0.15000 (mm)  
    Scanning
          drive axis          = Theta-2Theta 
          scan range          =    4.000 -   65.000 
          scan mode           = Continuous Scan 
          scan speed          =   2.0000 (deg/min) 
          sampling pitch      =   0.0200 (deg) 
          preset time         =   0.60 (sec) 

# Data      [ Total No. = 3051 ]
  <2Theta>   <   I   >
     4.0000       186
     4.0200       198
     4.0400       194
     4.0600       194
     4.0800       168
     4.1000       202
     4.1200       192
     4.1400       188
     4.1600       178
     4.1800       180
     4.2000       186
     4.2200       206
     4.2400       174
     4.2600       170
     4.2800       172
     4.3000       184
     4.3200       176
     4.3400       188
     4.3600       194
     4.3800       184
     4.4000       158
     4.4200       168
     4.4400       178
     4.4600       194
     4.4800       174
     4.5000       174
     4.5200       174
     4.5400       160
     4.5600       182
     4.5800       162
     4.6000       158
     4.6200       170
     4.6400       178
     4.6600       164
     4.6800       152
     4.7000       158
     4.7200       178
     4.7400       160
     4.7600       172
     4.7800       156
     4.8000       148
     4.8200       176
     4.8400       158
     4.8600       156
     4.8800       164
     4.9000       172
     4.9200       194
     4.9400       172
     4.9600       166
     4.9800       154
     5.0000       170
     5.0200       150
     5.0400       144
     5.0600       166
     5.0800       178
     5.1000       148
     5.1200       162
     5.1400       164
     5.1600       170
     5.1800       180
     5.2000       176
     5.2200       178
     5.2400       170
     5.2600       164
     5.2800       144
     5.3000       158
     5.3200       184
     5.3400       158
     5.3600       164
     5.3800       190
     5.4000       156
     5.4200       150
     5.4400       164
     5.4600       152
     5.4800       178
     5.5000       176
     5.5200       166
     5.5400       144
     5.5600       164
     5.5800       158
     5.6000       150
     5.6200       162
     5.6400       156
     5.6600       160
     5.6800       148
     5.7000       170
     5.7200       150
     5.7400       160
     5.7600       168
     5.7800       166
     5.8000       182
     5.8200       156
     5.8400       150
     5.8600       174
     5.8800       166
     5.9000       162
     5.9200       140
     5.9400       180
     5.9600       188
     5.9800       186
     6.0000       180
     6.0200       166
     6.0400       184
     6.0600       156
     6.0800       170
     6.1000       176
     6.1200       176
     6.1400       186
     6.1600       178
     6.1800       184
     6.2000       156
     6.2200       172
     6.2400       174
     6.2600       172
     6.2800       172
     6.3000       142
     6.3200       184
     6.3400       148
     6.3600       162
     6.3800       174
     6.4000       170
     6.4200       144
     6.4400       162
     6.4600       160
     6.4800       160
     6.5000       158
     6.5200       158
     6.5400       158
     6.5600       144
     6.5800       164
     6.6000       158
     6.6200       136
     6.6400       140
     6.6600       160
     6.6800       152
     6.7000       140
     6.7200       156
     6.7400       154
     6.7600       170
     6.7800       174
     6.8000       154
     6.8200       162
     6.8400       160
     6.8600       134
     6.8800       156
     6.9000       170
     6.9200       142
     6.9400       166
     6.9600       166
     6.9800       132
     7.0000       152
     7.0200       138
     7.0400       138
     7.0600       140
     7.0800       126
     7.1000       148
     7.1200       130
     7.1400       124
     7.1600       142
     7.1800       124
     7.2000       110
     7.2200       126
     7.2400       118
     7.2600       132
     7.2800       144
     7.3000       122
     7.3200       138
     7.3400       144
     7.3600       118
     7.3800       124
     7.4000       130
     7.4200       148
     7.4400       132
     7.4600       118
     7.4800       144
     7.5000       114
     7.5200       114
     7.5400       126
     7.5600       116
     7.5800       122
     7.6000       114
     7.6200       116
     7.6400       126
     7.6600       122
     7.6800       122
     7.7000       126
     7.7200       114
     7.7400       138
     7.7600       114
     7.7800       120
     7.8000       150
     7.8200       118
     7.8400       118
     7.8600       138
     7.8800       112
     7.9000       116
     7.9200       130
     7.9400       112
     7.9600       116
     7.9800       120
     8.0000       134
     8.0200       112
     8.0400       128
     8.0600       130
     8.0800       122
     8.1000       122
     8.1200       130
     8.1400       112
     8.1600       116
     8.1800       106
     8.2000       128
     8.2200       116
     8.2400       144
     8.2600       110
     8.2800       126
     8.3000       140
     8.3200       116
     8.3400       126
     8.3600       124
     8.3800       126
     8.4000       114
     8.4200       140
     8.4400       124
     8.4600       122
     8.4800       136
     8.5000       148
     8.5200       132
     8.5400       132
     8.5600       128
     8.5800       122
     8.6000       116
     8.6200       144
     8.6400       126
     8.6600       120
     8.6800       114
     8.7000       126
     8.7200       136
     8.7400       136
     8.7600       134
     8.7800       128
     8.8000       126
     8.8200       146
     8.8400       124
     8.8600       132
     8.8800       134
     8.9000       144
     8.9200       150
     8.9400       146
     8.9600       188
     8.9800       186
     9.0000       188
     9.0200       160
     9.0400       170
     9.0600       186
     9.0800       216
     9.1000       216
     9.1200       250
     9.1400       214
     9.1600       250
     9.1800       270
     9.2000       284
     9.2200       348
     9.2400       372
     9.2600       382
     9.2800       380
     9.3000       404
     9.3200       474
     9.3400       546
     9.3600       766
     9.3800       902
     9.4000      1254
     9.4200      1514
     9.4400      1536
     9.4600      1342
     9.4800      1026
     9.5000       662
     9.5200       440
     9.5400       282
     9.5600       206
     9.5800       164
     9.6000       128
     9.6200       132
     9.6400       134
     9.6600       124
     9.6800       114
     9.7000       126
     9.7200       112
     9.7400       130
     9.7600       126
     9.7800       114
     9.8000       150
     9.8200       124
     9.8400       124
     9.8600       108
     9.8800       126
     9.9000        92
     9.9200       114
     9.9400       104
     9.9600       122
     9.9800       112
    10.0000       102
    10.0200       110
    10.0400        98
    10.0600       106
    10.0800       128
    10.1000       108
    10.1200       104
    10.1400       112
    10.1600       118
    10.1800       122
    10.2000        90
    10.2200       142
    10.2400       136
    10.2600       132
    10.2800       100
    10.3000       124
    10.3200       112
    10.3400        96
    10.3600       102
    10.3800        98
    10.4000        96
    10.4200       112
    10.4400       100
    10.4600       108
    10.4800       110
    10.5000       108
    10.5200       118
    10.5400       112
    10.5600       108
    10.5800       110
    10.6000        98
    10.6200        98
    10.6400       100
    10.6600        86
    10.6800       102
    10.7000       108
    10.7200       100
    10.7400       102
    10.7600       100
    10.7800        98
    10.8000        90
    10.8200        86
    10.8400        96
    10.8600       112
    10.8800        96
    10.9000        84
    10.9200        98
    10.9400        82
    10.9600       106
    10.9800        86
    11.0000       100
    11.0200       102
    11.0400       106
    11.0600       106
    11.0800       100
    11.1000        90
    11.1200       102
    11.1400       100
    11.1600        98
    11.1800        88
    11.2000        86
    11.2200        92
    11.2400        94
    11.2600       126
    11.2800       104
    11.3000        94
    11.3200        96
    11.3400        96
    11.3600        96
    11.3800        96
    11.4000        80
    11.4200       106
    11.4400        80
    11.4600        94
    11.4800        72
    11.5000       106
    11.5200        96
    11.5400        84
    11.5600        88
    11.5800        80
    11.6000        90
    11.6200        72
    11.6400       108
    11.6600        82
    11.6800        98
    11.7000        86
    11.7200       100
    11.7400        92
    11.7600       100
    11.7800        96
    11.8000        80
    11.8200        94
    11.8400       102
    11.8600       100
    11.8800        86
    11.9000        86
    11.9200        78
    11.9400        84
    11.9600        80
    11.9800        82
    12.0000       108
    12.0200        92
    12.0400       100
    12.0600       102
    12.0800        96
    12.1000        78
    12.1200        96
    12.1400        92
    12.1600        84
    12.1800       112
    12.2000        94
    12.2200        84
    12.2400        74
    12.2600        88
    12.2800        96
    12.3000       100
    12.3200       106
    12.3400        86
    12.3600        88
    12.3800        76
    12.4000        94
    12.4200        86
    12.4400       104
    12.4600       108
    12.4800        98
    12.5000        78
    12.5200       124
    12.5400       122
    12.5600       116
    12.5800       120
    12.6000       110
    12.6200       130
    12.6400       132
    12.6600       124
    12.6800       144
    12.7000       144
    12.7200       174
    12.7400       230
    12.7600       236
    12.7800       264
    12.8000       258
    12.8200       228
    12.8400       218
    12.8600       168
    12.8800       126
    12.9000       112
    12.9200        84
    12.9400        80
    12.9600        94
    12.9800        80
    13.0000        94
    13.0200       100
    13.0400        84
    13.0600        94
    13.0800        94
    13.1000        98
    13.1200        76
    13.1400        80
    13.1600        86
    13.1800        92
    13.2000        76
    13.2200        82
    13.2400        76
    13.2600        94
    13.2800        84
    13.3000        84
    13.3200        98
    13.3400        88
    13.3600       102
    13.3800        86
    13.4000        78
    13.4200        90
    13.4400       102
    13.4600        84
    13.4800        86
    13.5000        80
    13.5200        88
    13.5400        96
    13.5600        94
    13.5800        82
    13.6000        98
    13.6200        80
    13.6400        84
    13.6600        92
    13.6800       100
    13.7000        84
    13.7200        90
    13.7400       112
    13.7600       114
    13.7800        96
    13.8000       130
    13.8200       126
    13.8400       112
    13.8600       136
    13.8800       168
    13.9000       144
    13.9200       138
    13.9400       146
    13.9600       128
    13.9800       114
    14.0000       102
    14.0200        74
    14.0400        76
    14.0600        88
    14.0800        84
    14.1000        94
    14.1200        66
    14.1400        76
    14.1600        82
    14.1800        74
    14.2000        80
    14.2200        74
    14.2400        78
    14.2600        76
    14.2800        72
    14.3000        78
    14.3200        76
    14.3400        88
    14.3600        68
    14.3800        66
    14.4000        92
    14.4200        76
    14.4400        72
    14.4600        82
    14.4800        70
    14.5000        78
    14.5200        86
    14.5400        74
    14.5600        82
    14.5800        68
    14.6000        60
    14.6200        80
    14.6400        76
    14.6600        92
    14.6800        74
    14.7000        86
    14.7200        74
    14.7400        78
    14.7600        84
    14.7800        70
    14.8000        78
    14.8200        88
    14.8400        84
    14.8600        68
    14.8800        84
    14.9000        88
    14.9200        64
    14.9400        70
    14.9600        62
    14.9800        92
    15.0000        64
    15.0200        92
    15.0400        60
    15.0600        88
    15.0800        76
    15.1000        90
    15.1200        78
    15.1400        82
    15.1600        82
    15.1800        58
    15.2000        72
    15.2200        78
    15.2400        64
    15.2600        86
    15.2800        84
    15.3000        78
    15.3200        82
    15.3400        78
    15.3600        86
    15.3800        76
    15.4000        86
    15.4200        88
    15.4400        80
    15.4600        72
    15.4800        72
    15.5000       104
    15.5200       102
    15.5400        80
    15.5600        94
    15.5800        74
    15.6000        92
    15.6200        94
    15.6400       110
    15.6600       130
    15.6800       112
    15.7000       108
    15.7200       134
    15.7400       130
    15.7600       130
    15.7800       146
    15.8000       160
    15.8200       184
    15.8400       230
    15.8600       290
    15.8800       292
    15.9000       338
    15.9200       368
    15.9400       384
    15.9600       370
    15.9800       280
    16.0000       260
    16.0200       192
    16.0400       134
    16.0600       116
    16.0800        86
    16.1000        66
    16.1200        90
    16.1400        86
    16.1600        74
    16.1800        76
    16.2000        90
    16.2200        68
    16.2400        72
    16.2600        74
    16.2800        92
    16.3000        68
    16.3200        80
    16.3400        62
    16.3600        70
    16.3800        86
    16.4000        66
    16.4200        68
    16.4400        80
    16.4600        64
    16.4800        84
    16.5000        58
    16.5200        70
    16.5400        76
    16.5600        72
    16.5800        62
    16.6000        68
    16.6200        60
    16.6400        92
    16.6600        66
    16.6800        76
    16.7000        56
    16.7200        78
    16.7400       100
    16.7600        80
    16.7800        88
    16.8000        52
    16.8200        62
    16.8400        72
    16.8600        90
    16.8800        86
    16.9000        56
    16.9200        74
    16.9400        82
    16.9600        70
    16.9800        90
    17.0000        70
    17.0200        78
    17.0400        72
    17.0600        66
    17.0800        80
    17.1000        78
    17.1200        74
    17.1400        74
    17.1600        80
    17.1800        72
    17.2000        84
    17.2200        76
    17.2400        78
    17.2600        92
    17.2800        82
    17.3000        90
    17.3200        90
    17.3400        76
    17.3600        94
    17.3800       100
    17.4000        84
    17.4200       106
    17.4400        82
    17.4600        98
    17.4800       118
    17.5000       146
    17.5200       146
    17.5400       220
    17.5600       276
    17.5800       300
    17.6000       278
    17.6200       264
    17.6400       280
    17.6600       300
    17.6800       328
    17.7000       336
    17.7200       364
    17.7400       324
    17.7600       272
    17.7800       194
    17.8000       212
    17.8200       132
    17.8400       104
    17.8600       100
    17.8800        82
    17.9000        74
    17.9200        72
    17.9400        88
    17.9600        56
    17.9800        88
    18.0000        78
    18.0200        74
    18.0400        72
    18.0600        90
    18.0800        72
    18.1000        60
    18.1200        70
    18.1400        70
    18.1600        72
    18.1800        76
    18.2000        80
    18.2200        74
    18.2400        58
    18.2600        74
    18.2800        74
    18.3000        78
    18.3200        60
    18.3400        90
    18.3600        70
    18.3800        80
    18.4000        74
    18.4200        90
    18.4400        94
    18.4600        80
    18.4800        78
    18.5000        82
    18.5200        96
    18.5400        82
    18.5600        82
    18.5800        72
    18.6000        66
    18.6200        86
    18.6400        66
    18.6600        82
    18.6800        94
    18.7000        80
    18.7200        88
    18.7400        74
    18.7600        98
    18.7800        94
    18.8000       100
    18.8200       126
    18.8400       106
    18.8600       158
    18.8800       176
    18.9000       226
    18.9200       214
    18.9400       246
    18.9600       248
    18.9800       254
    19.0000       248
    19.0200       184
    19.0400       158
    19.0600       134
    19.0800       112
    19.1000        94
    19.1200        70
    19.1400        72
    19.1600        84
    19.1800        82
    19.2000        78
    19.2200        86
    19.2400        94
    19.2600        78
    19.2800        80
    19.3000        86
    19.3200        86
    19.3400        74
    19.3600        76
    19.3800        86
    19.4000        90
    19.4200        56
    19.4400        92
    19.4600        84
    19.4800        74
    19.5000        66
    19.5200        82
    19.5400        96
    19.5600        80
    19.5800        80
    19.6000        86
    19.6200        90
    19.6400        76
    19.6600        92
    19.6800        78
    19.7000       100
    19.7200        66
    19.7400        74
    19.7600        72
    19.7800        86
    19.8000        68
    19.8200        74
    19.8400        78
    19.8600        82
    19.8800        82
    19.9000        68
    19.9200       100
    19.9400        86
    19.9600        92
    19.9800        92
    20.0000       106
    20.0200        72
    20.0400        84
    20.0600        96
    20.0800       104
    20.1000       110
    20.1200       106
    20.1400       120
    20.1600       122
    20.1800       170
    20.2000       204
    20.2200       208
    20.2400       208
    20.2600       234
    20.2800       244
    20.3000       246
    20.3200       342
    20.3400       378
    20.3600       446
    20.3800       512
    20.4000       688
    20.4200       926
    20.4400      1120
    20.4600      1454
    20.4800      1522
    20.5000      1700
    20.5200      1664
    20.5400      1466
    20.5600      1224
    20.5800       958
    20.6000       630
    20.6200       452
    20.6400       286
    20.6600       218
    20.6800       180
    20.7000       158
    20.7200       142
    20.7400       156
    20.7600       174
    20.7800       200
    20.8000       206
    20.8200       176
    20.8400       144
    20.8600       132
    20.8800       106
    20.9000       114
    20.9200        84
    20.9400        98
    20.9600        70
    20.9800        72
    21.0000        74
    21.0200        70
    21.0400        68
    21.0600        64
    21.0800        68
    21.1000        64
    21.1200        72
    21.1400        80
    21.1600        70
    21.1800        86
    21.2000        60
    21.2200        66
    21.2400        60
    21.2600        78
    21.2800        66
    21.3000        76
    21.3200        62
    21.3400        66
    21.3600        68
    21.3800        66
    21.4000        76
    21.4200        64
    21.4400        60
    21.4600        76
    21.4800        76
    21.5000        54
    21.5200        84
    21.5400        66
    21.5600        62
    21.5800        80
    21.6000        66
    21.6200        80
    21.6400        54
    21.6600        74
    21.6800        88
    21.7000        80
    21.7200        74
    21.7400        80
    21.7600        76
    21.7800        82
    21.8000        76
    21.8200        76
    21.8400        88
    21.8600        90
    21.8800        82
    21.9000        94
    21.9200       104
    21.9400       110
    21.9600       142
    21.9800       106
    22.0000        94
    22.0200        86
    22.0400        90
    22.0600        82
    22.0800        72
    22.1000        72
    22.1200        76
    22.1400        84
    22.1600        90
    22.1800        94
    22.2000       112
    22.2200        98
    22.2400       108
    22.2600       122
    22.2800       128
    22.3000       102
    22.3200       122
    22.3400        86
    22.3600        82
    22.3800        86
    22.4000        86
    22.4200        68
    22.4400        70
    22.4600        74
    22.4800        80
    22.5000        62
    22.5200        82
    22.5400        68
    22.5600        68
    22.5800        70
    22.6000        72
    22.6200        88
    22.6400        86
    22.6600        90
    22.6800        76
    22.7000        86
    22.7200        98
    22.7400       104
    22.7600       104
    22.7800        98
    22.8000       124
    22.8200       160
    22.8400       214
    22.8600       214
    22.8800       254
    22.9000       290
    22.9200       346
    22.9400       338
    22.9600       354
    22.9800       344
    23.0000       290
    23.0200       272
    23.0400       174
    23.0600       180
    23.0800       132
    23.1000        88
    23.1200        78
    23.1400        84
    23.1600        74
    23.1800        68
    23.2000        82
    23.2200        72
    23.2400        62
    23.2600        82
    23.2800        72
    23.3000        64
    23.3200        66
    23.3400        52
    23.3600        64
    23.3800        64
    23.4000        72
    23.4200        54
    23.4400        60
    23.4600        76
    23.4800        62
    23.5000        68
    23.5200        82
    23.5400        70
    23.5600        62
    23.5800        84
    23.6000        72
    23.6200        62
    23.6400        62
    23.6600        82
    23.6800        76
    23.7000        62
    23.7200        56
    23.7400        52
    23.7600        92
    23.7800        72
    23.8000        58
    23.8200        66
    23.8400        68
    23.8600        56
    23.8800        60
    23.9000        72
    23.9200        76
    23.9400        96
    23.9600        70
    23.9800        80
    24.0000        70
    24.0200        84
    24.0400        72
    24.0600        74
    24.0800        84
    24.1000        98
    24.1200        78
    24.1400        56
    24.1600        76
    24.1800        80
    24.2000        66
    24.2200        86
    24.2400        70
    24.2600        78
    24.2800        70
    24.3000        74
    24.3200        78
    24.3400        70
    24.3600        64
    24.3800        70
    24.4000        74
    24.4200        76
    24.4400        68
    24.4600        78
    24.4800        92
    24.5000        74
    24.5200        88
    24.5400        94
    24.5600        98
    24.5800        98
    24.6000        96
    24.6200       124
    24.6400       122
    24.6600       168
    24.6800       170
    24.7000       162
    24.7200       210
    24.7400       210
    24.7600       270
    24.7800       380
    24.8000       432
    24.8200       484
    24.8400       522
    24.8600       612
    24.8800       572
    24.9000       514
    24.9200       436
    24.9400       350
    24.9600       280
    24.9800       222
    25.0000       152
    25.0200       120
    25.0400       118
    25.0600       106
    25.0800        86
    25.1000        88
    25.1200        76
    25.1400        70
    25.1600        78
    25.1800        72
    25.2000        64
    25.2200        82
    25.2400        70
    25.2600        64
    25.2800        90
    25.3000        76
    25.3200        54
    25.3400        66
    25.3600        64
    25.3800        72
    25.4000        74
    25.4200        78
    25.4400        76
    25.4600        78
    25.4800        72
    25.5000        62
    25.5200        76
    25.5400        80
    25.5600        76
    25.5800       100
    25.6000        88
    25.6200        96
    25.6400       118
    25.6600       122
    25.6800       168
    25.7000       194
    25.7200       244
    25.7400       260
    25.7600       268
    25.7800       314
    25.8000       356
    25.8200       310
    25.8400       308
    25.8600       280
    25.8800       202
    25.9000       156
    25.9200       162
    25.9400       114
    25.9600       112
    25.9800        82
    26.0000        90
    26.0200        80
    26.0400        74
    26.0600        66
    26.0800        72
    26.1000        66
    26.1200        60
    26.1400        56
    26.1600        64
    26.1800        62
    26.2000        80
    26.2200        68
    26.2400        84
    26.2600        86
    26.2800        72
    26.3000        70
    26.3200        78
    26.3400       100
    26.3600        90
    26.3800        82
    26.4000       114
    26.4200       142
    26.4400       146
    26.4600       190
    26.4800       256
    26.5000       272
    26.5200       324
    26.5400       400
    26.5600       402
    26.5800       396
    26.6000       386
    26.6200       328
    26.6400       266
    26.6600       218
    26.6800       170
    26.7000       138
    26.7200        96
    26.7400       108
    26.7600        92
    26.7800        70
    26.8000        74
    26.8200        82
    26.8400        74
    26.8600        74
    26.8800        70
    26.9000        72
    26.9200        78
    26.9400        64
    26.9600        80
    26.9800        74
    27.0000        62
    27.0200        78
    27.0400        68
    27.0600        84
    27.0800        70
    27.1000        60
    27.1200        72
    27.1400        64
    27.1600        70
    27.1800        58
    27.2000        80
    27.2200        48
    27.2400        52
    27.2600        64
    27.2800        58
    27.3000        78
    27.3200        82
    27.3400        74
    27.3600        78
    27.3800        76
    27.4000        98
    27.4200       104
    27.4400        98
    27.4600       134
    27.4800       174
    27.5000       168
    27.5200       196
    27.5400       194
    27.5600       188
    27.5800       176
    27.6000       148
    27.6200       130
    27.6400       138
    27.6600       112
    27.6800       106
    27.7000       104
    27.7200       100
    27.7400        86
    27.7600        94
    27.7800        96
    27.8000        90
    27.8200        62
    27.8400        82
    27.8600        82
    27.8800       106
    27.9000       108
    27.9200       136
    27.9400       118
    27.9600       134
    27.9800       138
    28.0000       150
    28.0200       154
    28.0400       188
    28.0600       198
    28.0800       182
    28.1000       222
    28.1200       236
    28.1400       238
    28.1600       182
    28.1800       170
    28.2000       132
    28.2200       128
    28.2400        84
    28.2600        78
    28.2800        74
    28.3000        88
    28.3200        82
    28.3400        76
    28.3600        76
    28.3800        50
    28.4000        58
    28.4200        88
    28.4400        78
    28.4600        72
    28.4800        70
    28.5000        70
    28.5200        70
    28.5400        54
    28.5600        64
    28.5800        62
    28.6000        66
    28.6200        74
    28.6400        64
    28.6600        64
    28.6800        64
    28.7000        74
    28.7200        64
    28.7400        78
    28.7600        52
    28.7800        54
    28.8000        68
    28.8200        62
    28.8400        70
    28.8600        82
    28.8800        72
    28.9000        62
    28.9200        54
    28.9400        62
    28.9600        62
    28.9800        68
    29.0000        74
    29.0200        72
    29.0400        82
    29.0600        76
    29.0800        74
    29.1000        50
    29.1200        72
    29.1400        74
    29.1600        64
    29.1800        70
    29.2000        78
    29.2200       100
    29.2400        92
    29.2600        88
    29.2800        80
    29.3000        92
    29.3200       114
    29.3400        92
    29.3600        88
    29.3800        86
    29.4000        90
    29.4200        98
    29.4400       102
    29.4600        90
    29.4800        80
    29.5000        88
    29.5200        80
    29.5400        96
    29.5600        70
    29.5800        84
    29.6000        72
    29.6200        76
    29.6400        80
    29.6600        78
    29.6800        58
    29.7000        74
    29.7200        80
    29.7400        78
    29.7600        68
    29.7800        82
    29.8000        68
    29.8200        62
    29.8400        84
    29.8600        64
    29.8800        78
    29.9000        78
    29.9200        90
    29.9400        64
    29.9600        78
    29.9800        66
    30.0000        86
    30.0200        72
    30.0400        78
    30.0600        76
    30.0800        96
    30.1000        98
    30.1200        96
    30.1400       116
    30.1600       120
    30.1800       122
    30.2000       164
    30.2200       152
    30.2400       168
    30.2600       214
    30.2800       222
    30.3000       262
    30.3200       374
    30.3400       460
    30.3600       424
    30.3800       526
    30.4000       722
    30.4200       848
    30.4400       924
    30.4600      1012
    30.4800      1102
    30.5000      1188
    30.5200      1188
    30.5400       880
    30.5600       810
    30.5800       688
    30.6000       616
    30.6200       474
    30.6400       460
    30.6600       394
    30.6800       482
    30.7000       474
    30.7200       496
    30.7400       424
    30.7600       396
    30.7800       372
    30.8000       332
    30.8200       326
    30.8400       354
    30.8600       368
    30.8800       466
    30.9000       494
    30.9200       538
    30.9400       572
    30.9600       634
    30.9800       714
    31.0000       732
    31.0200       666
    31.0400       596
    31.0600       474
    31.0800       434
    31.1000       322
    31.1200       258
    31.1400       180
    31.1600       148
    31.1800       134
    31.2000        94
    31.2200        98
    31.2400        90
    31.2600        86
    31.2800        90
    31.3000       102
    31.3200        96
    31.3400        82
    31.3600        88
    31.3800        98
    31.4000       116
    31.4200       132
    31.4400       152
    31.4600       134
    31.4800       148
    31.5000       144
    31.5200       172
    31.5400       166
    31.5600       122
    31.5800       124
    31.6000       118
    31.6200        88
    31.6400        90
    31.6600        86
    31.6800        78
    31.7000        82
    31.7200        80
    31.7400        70
    31.7600        78
    31.7800        70
    31.8000        54
    31.8200        62
    31.8400        70
    31.8600        66
    31.8800        50
    31.9000        92
    31.9200        58
    31.9400        62
    31.9600        68
    31.9800        54
    32.0000        54
    32.0200        70
    32.0400        68
    32.0600        76
    32.0800        76
    32.1000        82
    32.1200        76
    32.1400        92
    32.1600       112
    32.1800       130
    32.2000       116
    32.2200       100
    32.2400       118
    32.2600       116
    32.2800       126
    32.3000       116
    32.3200        78
    32.3400        84
    32.3600        92
    32.3800        70
    32.4000        74
    32.4200        58
    32.4400        74
    32.4600        68
    32.4800        76
    32.5000        66
    32.5200        74
    32.5400        82
    32.5600        76
    32.5800        84
    32.6000        76
    32.6200        64
    32.6400        62
    32.6600       102
    32.6800        66
    32.7000        74
    32.7200        64
    32.7400        80
    32.7600        68
    32.7800        82
    32.8000        56
    32.8200        82
    32.8400        70
    32.8600        84
    32.8800        76
    32.9000        68
    32.9200        68
    32.9400        98
    32.9600        92
    32.9800        94
    33.0000       116
    33.0200       112
    33.0400       110
    33.0600        92
    33.0800        98
    33.1000        90
    33.1200       138
    33.1400       112
    33.1600       132
    33.1800       154
    33.2000       134
    33.2200       132
    33.2400       150
    33.2600       144
    33.2800       182
    33.3000       136
    33.3200       164
    33.3400       184
    33.3600       244
    33.3800       354
    33.4000       428
    33.4200       418
    33.4400       288
    33.4600       240
    33.4800       304
    33.5000       276
    33.5200       182
    33.5400       126
    33.5600       116
    33.5800        90
    33.6000        88
    33.6200        84
    33.6400        68
    33.6600        80
    33.6800        96
    33.7000        64
    33.7200        74
    33.7400        72
    33.7600        56
    33.7800        54
    33.8000        68
    33.8200        68
    33.8400        62
    33.8600        84
    33.8800        68
    33.9000        68
    33.9200        86
    33.9400        74
    33.9600        68
    33.9800        72
    34.0000        84
    34.0200        88
    34.0400        66
    34.0600        72
    34.0800        66
    34.1000        80
    34.1200        90
    34.1400        72
    34.1600       110
    34.1800        96
    34.2000        96
    34.2200       132
    34.2400       138
    34.2600       168
    34.2800       196
    34.3000       240
    34.3200       242
    34.3400       334
    34.3600       354
    34.3800       428
    34.4000       354
    34.4200       306
    34.4400       272
    34.4600       280
    34.4800       212
    34.5000       154
    34.5200       134
    34.5400       108
    34.5600        94
    34.5800        72
    34.6000        94
    34.6200        94
    34.6400        98
    34.6600        96
    34.6800        74
    34.7000        96
    34.7200       104
    34.7400        94
    34.7600       108
    34.7800       114
    34.8000       114
    34.8200       114
    34.8400       132
    34.8600       108
    34.8800       122
    34.9000       110
    34.9200        96
    34.9400        64
    34.9600        84
    34.9800        90
    35.0000        78
    35.0200        68
    35.0400        72
    35.0600        74
    35.0800        84
    35.1000        64
    35.1200        88
    35.1400        66
    35.1600        80
    35.1800        64
    35.2000        80
    35.2200        72
    35.2400        68
    35.2600        66
    35.2800        72
    35.3000        76
    35.3200        76
    35.3400        78
    35.3600        88
    35.3800        82
    35.4000        94
    35.4200        88
    35.4400       106
    35.4600        78
    35.4800        84
    35.5000        86
    35.5200        96
    35.5400        92
    35.5600        98
    35.5800       108
    35.6000        98
    35.6200       100
    35.6400       102
    35.6600       108
    35.6800       106
    35.7000       110
    35.7200       124
    35.7400       160
    35.7600       174
    35.7800       206
    35.8000       246
    35.8200       312
    35.8400       380
    35.8600       564
    35.8800       864
    35.9000       992
    35.9200       916
    35.9400       744
    35.9600       586
    35.9800       618
    36.0000       632
    36.0200       456
    36.0400       318
    36.0600       220
    36.0800       160
    36.1000       150
    36.1200       130
    36.1400        92
    36.1600        86
    36.1800        98
    36.2000        90
    36.2200        64
    36.2400        80
    36.2600        76
    36.2800        76
    36.3000        68
    36.3200        72
    36.3400        78
    36.3600        82
    36.3800        92
    36.4000       118
    36.4200        92
    36.4400       104
    36.4600        94
    36.4800        78
    36.5000       100
    36.5200        94
    36.5400        92
    36.5600        76
    36.5800        80
    36.6000        84
    36.6200        78
    36.6400        72
    36.6600        72
    36.6800        66
    36.7000        68
    36.7200        70
    36.7400        54
    36.7600        74
    36.7800        66
    36.8000        52
    36.8200        70
    36.8400        68
    36.8600        70
    36.8800        70
    36.9000        74
    36.9200        80
    36.9400        64
    36.9600        70
    36.9800        70
    37.0000        76
    37.0200        68
    37.0400        58
    37.0600        66
    37.0800        74
    37.1000        62
    37.1200        54
    37.1400        68
    37.1600        72
    37.1800        60
    37.2000        54
    37.2200        58
    37.2400        72
    37.2600        62
    37.2800        52
    37.3000        50
    37.3200        72
    37.3400        70
    37.3600        74
    37.3800        54
    37.4000        60
    37.4200        60
    37.4400        74
    37.4600        68
    37.4800        86
    37.5000        72
    37.5200        68
    37.5400        60
    37.5600        64
    37.5800        58
    37.6000        58
    37.6200        50
    37.6400        68
    37.6600        56
    37.6800        42
    37.7000        60
    37.7200        46
    37.7400        74
    37.7600        64
    37.7800        70
    37.8000        70
    37.8200        56
    37.8400        58
    37.8600        76
    37.8800        60
    37.9000        64
    37.9200        64
    37.9400        72
    37.9600        74
    37.9800        58
    38.0000        68
    38.0200        76
    38.0400        56
    38.0600        84
    38.0800        64
    38.1000        98
    38.1200        82
    38.1400        64
    38.1600        68
    38.1800        92
    38.2000        62
    38.2200        84
    38.2400        86
    38.2600       100
    38.2800        94
    38.3000        98
    38.3200        78
    38.3400        86
    38.3600        86
    38.3800        82
    38.4000       106
    38.4200        94
    38.4400        88
    38.4600        84
    38.4800        90
    38.5000       102
    38.5200       100
    38.5400        90
    38.5600        88
    38.5800        78
    38.6000        82
    38.6200        84
    38.6400       106
    38.6600        92
    38.6800        78
    38.7000        70
    38.7200        76
    38.7400        76
    38.7600        66
    38.7800        76
    38.8000        72
    38.8200        68
    38.8400        86
    38.8600        70
    38.8800        86
    38.9000        84
    38.9200        84
    38.9400        84
    38.9600        98
    38.9800        94
    39.0000       100
    39.0200        94
    39.0400        96
    39.0600       104
    39.0800        96
    39.1000       142
    39.1200       130
    39.1400       122
    39.1600       122
    39.1800       140
    39.2000       136
    39.2200       144
    39.2400       124
    39.2600       124
    39.2800       134
    39.3000       102
    39.3200       114
    39.3400       110
    39.3600       104
    39.3800        80
    39.4000        86
    39.4200        82
    39.4400        84
    39.4600        90
    39.4800       110
    39.5000       112
    39.5200       104
    39.5400       104
    39.5600       104
    39.5800        96
    39.6000       102
    39.6200        96
    39.6400        80
    39.6600        78
    39.6800        82
    39.7000        72
    39.7200        66
    39.7400        78
    39.7600        72
    39.7800        56
    39.8000        58
    39.8200        64
    39.8400        64
    39.8600        62
    39.8800        58
    39.9000        56
    39.9200        52
    39.9400        64
    39.9600        70
    39.9800        66
    40.0000        54
    40.0200        74
    40.0400        70
    40.0600        68
    40.0800        60
    40.1000        80
    40.1200        64
    40.1400        70
    40.1600        70
    40.1800        64
    40.2000        78
    40.2200        80
    40.2400        88
    40.2600        96
    40.2800        74
    40.3000        72
    40.3200        90
    40.3400        76
    40.3600        74
    40.3800        86
    40.4000        68
    40.4200        76
    40.4400        66
    40.4600        70
    40.4800        66
    40.5000        84
    40.5200        76
    40.5400        62
    40.5600        72
    40.5800        72
    40.6000        74
    40.6200        54
    40.6400        70
    40.6600        90
    40.6800        52
    40.7000        60
    40.7200        66
    40.7400        60
    40.7600        62
    40.7800        92
    40.8000        60
    40.8200        78
    40.8400        68
    40.8600        72
    40.8800        70
    40.9000        56
    40.9200        62
    40.9400        78
    40.9600        58
    40.9800        64
    41.0000        78
    41.0200        74
    41.0400        58
    41.0600        60
    41.0800        56
    41.1000        66
    41.1200        56
    41.1400        64
    41.1600        64
    41.1800        54
    41.2000        52
    41.2200        70
    41.2400        68
    41.2600        56
    41.2800        58
    41.3000        52
    41.3200        58
    41.3400        68
    41.3600        58
    41.3800        70
    41.4000        72
    41.4200        70
    41.4400        66
    41.4600        56
    41.4800        52
    41.5000        68
    41.5200        66
    41.5400        60
    41.5600        60
    41.5800        66
    41.6000        66
    41.6200        66
    41.6400        72
    41.6600        72
    41.6800        64
    41.7000        74
    41.7200        74
    41.7400        70
    41.7600        68
    41.7800        88
    41.8000        72
    41.8200        72
    41.8400        76
    41.8600        84
    41.8800        60
    41.9000        66
    41.9200        78
    41.9400        70
    41.9600        62
    41.9800        72
    42.0000        76
    42.0200        70
    42.0400        56
    42.0600        62
    42.0800        48
    42.1000        52
    42.1200        52
    42.1400        68
    42.1600        62
    42.1800        60
    42.2000        68
    42.2200        58
    42.2400        66
    42.2600        68
    42.2800        66
    42.3000        60
    42.3200        74
    42.3400        76
    42.3600        84
    42.3800        90
    42.4000        74
    42.4200        76
    42.4400        78
    42.4600        74
    42.4800        70
    42.5000        70
    42.5200        82
    42.5400        88
    42.5600        86
    42.5800        82
    42.6000        90
    42.6200        90
    42.6400        96
    42.6600        90
    42.6800        94
    42.7000        86
    42.7200       114
    42.7400        94
    42.7600        82
    42.7800        78
    42.8000        88
    42.8200        70
    42.8400        78
    42.8600        90
    42.8800        70
    42.9000        76
    42.9200        84
    42.9400        88
    42.9600        90
    42.9800        74
    43.0000        70
    43.0200        66
    43.0400        84
    43.0600        84
    43.0800        88
    43.1000        82
    43.1200        88
    43.1400       106
    43.1600       118
    43.1800       134
    43.2000       178
    43.2200       246
    43.2400       374
    43.2600       428
    43.2800       480
    43.3000       450
    43.3200       370
    43.3400       320
    43.3600       298
    43.3800       266
    43.4000       264
    43.4200       246
    43.4400       166
    43.4600       144
    43.4800       116
    43.5000       106
    43.5200        84
    43.5400        70
    43.5600        58
    43.5800        78
    43.6000        62
    43.6200        58
    43.6400        72
    43.6600        54
    43.6800        72
    43.7000        62
    43.7200        70
    43.7400        64
    43.7600        44
    43.7800        78
    43.8000        66
    43.8200        68
    43.8400        76
    43.8600        84
    43.8800        60
    43.9000        62
    43.9200        82
    43.9400        70
    43.9600        76
    43.9800        56
    44.0000        64
    44.0200        58
    44.0400        56
    44.0600        54
    44.0800        52
    44.1000        48
    44.1200        64
    44.1400        58
    44.1600        48
    44.1800        62
    44.2000        60
    44.2200        54
    44.2400        50
    44.2600        46
    44.2800        76
    44.3000        68
    44.3200        62
    44.3400        68
    44.3600        58
    44.3800        48
    44.4000        70
    44.4200        58
    44.4400        46
    44.4600        44
    44.4800        36
    44.5000        46
    44.5200        50
    44.5400        46
    44.5600        58
    44.5800        60
    44.6000        64
    44.6200        66
    44.6400        58
    44.6600        50
    44.6800        64
    44.7000        74
    44.7200        70
    44.7400        58
    44.7600        52
    44.7800        66
    44.8000        60
    44.8200        70
    44.8400        60
    44.8600        50
    44.8800        66
    44.9000        64
    44.9200        58
    44.9400        76
    44.9600        62
    44.9800        72
    45.0000        78
    45.0200        74
    45.0400        74
    45.0600        64
    45.0800        56
    45.1000        60
    45.1200        60
    45.1400        48
    45.1600        52
    45.1800        54
    45.2000        54
    45.2200        52
    45.2400        52
    45.2600        62
    45.2800        58
    45.3000        60
    45.3200        70
    45.3400        46
    45.3600        52
    45.3800        62
    45.4000        48
    45.4200        68
    45.4400        48
    45.4600        62
    45.4800        50
    45.5000        62
    45.5200        52
    45.5400        60
    45.5600        64
    45.5800        60
    45.6000        42
    45.6200        48
    45.6400        42
    45.6600        48
    45.6800        56
    45.7000        56
    45.7200        74
    45.7400        56
    45.7600        54
    45.7800        64
    45.8000        62
    45.8200        60
    45.8400        60
    45.8600        44
    45.8800        42
    45.9000        42
    45.9200        46
    45.9400        42
    45.9600        32
    45.9800        42
    46.0000        50
    46.0200        44
    46.0400        40
    46.0600        46
    46.0800        58
    46.1000        54
    46.1200        42
    46.1400        46
    46.1600        48
    46.1800        42
    46.2000        44
    46.2200        44
    46.2400        40
    46.2600        44
    46.2800        50
    46.3000        54
    46.3200        52
    46.3400        36
    46.3600        64
    46.3800        40
    46.4000        44
    46.4200        44
    46.4400        54
    46.4600        52
    46.4800        44
    46.5000        46
    46.5200        54
    46.5400        46
    46.5600        56
    46.5800        50
    46.6000        46
    46.6200        60
    46.6400        62
    46.6600        54
    46.6800        54
    46.7000        52
    46.7200        46
    46.7400        64
    46.7600        76
    46.7800        64
    46.8000        62
    46.8200        52
    46.8400        66
    46.8600        58
    46.8800        58
    46.9000        74
    46.9200        84
    46.9400        72
    46.9600        84
    46.9800        50
    47.0000        76
    47.0200        50
    47.0400        58
    47.0600        64
    47.0800        42
    47.1000        72
    47.1200        50
    47.1400        44
    47.1600        48
    47.1800        52
    47.2000        46
    47.2200        46
    47.2400        54
    47.2600        42
    47.2800        52
    47.3000        60
    47.3200        54
    47.3400        64
    47.3600        74
    47.3800        60
    47.4000        80
    47.4200        82
    47.4400        92
    47.4600       120
    47.4800       106
    47.5000        88
    47.5200       128
    47.5400        92
    47.5600       108
    47.5800       118
    47.6000        80
    47.6200        96
    47.6400        86
    47.6600        76
    47.6800        68
    47.7000        52
    47.7200        68
    47.7400        62
    47.7600        58
    47.7800        54
    47.8000        46
    47.8200        48
    47.8400        50
    47.8600        56
    47.8800        34
    47.9000        54
    47.9200        44
    47.9400        50
    47.9600        56
    47.9800        46
    48.0000        52
    48.0200        54
    48.0400        64
    48.0600        46
    48.0800        60
    48.1000        56
    48.1200        50
    48.1400        62
    48.1600        56
    48.1800        50
    48.2000        54
    48.2200        70
    48.2400        58
    48.2600        50
    48.2800        40
    48.3000        62
    48.3200        42
    48.3400        54
    48.3600        46
    48.3800        58
    48.4000        68
    48.4200        54
    48.4400        54
    48.4600        66
    48.4800        70
    48.5000        70
    48.5200        80
    48.5400        56
    48.5600        76
    48.5800        68
    48.6000       108
    48.6200       170
    48.6400       164
    48.6600       222
    48.6800       256
    48.7000       264
    48.7200       296
    48.7400       296
    48.7600       246
    48.7800       254
    48.8000       210
    48.8200       202
    48.8400       184
    48.8600       160
    48.8800       184
    48.9000       122
    48.9200       106
    48.9400        78
    48.9600        70
    48.9800        60
    49.0000        56
    49.0200        84
    49.0400        70
    49.0600        72
    49.0800        62
    49.1000        78
    49.1200        66
    49.1400        92
    49.1600        76
    49.1800       108
    49.2000        80
    49.2200        90
    49.2400        88
    49.2600       108
    49.2800        78
    49.3000        82
    49.3200        74
    49.3400        86
    49.3600        92
    49.3800        62
    49.4000        66
    49.4200        58
    49.4400        76
    49.4600        66
    49.4800        62
    49.5000        62
    49.5200        52
    49.5400        60
    49.5600        50
    49.5800        42
    49.6000        62
    49.6200        42
    49.6400        44
    49.6600        44
    49.6800        58
    49.7000        46
    49.7200        54
    49.7400        58
    49.7600        58
    49.7800        62
    49.8000        60
    49.8200        50
    49.8400        50
    49.8600        56
    49.8800        42
    49.9000        54
    49.9200        64
    49.9400        58
    49.9600        62
    49.9800        54
    50.0000        68
    50.0200        74
    50.0400        76
    50.0600        88
    50.0800        82
    50.1000        66
    50.1200        72
    50.1400        72
    50.1600        70
    50.1800        70
    50.2000        64
    50.2200        56
    50.2400        50
    50.2600        58
    50.2800        80
    50.3000        74
    50.3200        60
    50.3400        76
    50.3600        90
    50.3800       104
    50.4000        96
    50.4200       120
    50.4400       128
    50.4600       142
    50.4800       158
    50.5000       170
    50.5200       234
    50.5400       318
    50.5600       336
    50.5800       340
    50.6000       318
    50.6200       294
    50.6400       252
    50.6600       212
    50.6800       222
    50.7000       248
    50.7200       232
    50.7400       192
    50.7600       180
    50.7800       156
    50.8000       140
    50.8200       112
    50.8400        86
    50.8600        78
    50.8800        66
    50.9000        66
    50.9200        64
    50.9400        50
    50.9600        52
    50.9800        58
    51.0000        70
    51.0200        78
    51.0400        76
    51.0600        58
    51.0800        56
    51.1000        60
    51.1200        48
    51.1400        78
    51.1600        72
    51.1800        54
    51.2000        74
    51.2200        74
    51.2400        74
    51.2600        66
    51.2800        48
    51.3000        64
    51.3200        40
    51.3400        44
    51.3600        54
    51.3800        54
    51.4000        56
    51.4200        48
    51.4400        54
    51.4600        54
    51.4800        44
    51.5000        72
    51.5200        68
    51.5400       110
    51.5600       144
    51.5800       144
    51.6000       124
    51.6200       116
    51.6400       102
    51.6600        96
    51.6800       124
    51.7000       134
    51.7200       106
    51.7400        96
    51.7600        80
    51.7800        78
    51.8000        72
    51.8200        58
    51.8400        44
    51.8600        42
    51.8800        42
    51.9000        54
    51.9200        54
    51.9400        40
    51.9600        42
    51.9800        44
    52.0000        46
    52.0200        52
    52.0400        40
    52.0600        50
    52.0800        54
    52.1000        44
    52.1200        50
    52.1400        36
    52.1600        50
    52.1800        42
    52.2000        40
    52.2200        42
    52.2400        48
    52.2600        40
    52.2800        48
    52.3000        38
    52.3200        46
    52.3400        40
    52.3600        46
    52.3800        58
    52.4000        52
    52.4200        56
    52.4400        48
    52.4600        28
    52.4800        44
    52.5000        48
    52.5200        60
    52.5400        42
    52.5600        60
    52.5800        56
    52.6000        58
    52.6200        54
    52.6400        38
    52.6600        52
    52.6800        54
    52.7000        74
    52.7200        56
    52.7400        68
    52.7600        48
    52.7800        70
    52.8000        68
    52.8200        74
    52.8400        78
    52.8600        92
    52.8800       104
    52.9000        86
    52.9200        94
    52.9400        94
    52.9600        86
    52.9800       102
    53.0000       130
    53.0200       154
    53.0400       178
    53.0600       174
    53.0800       204
    53.1000       150
    53.1200       188
    53.1400       210
    53.1600       256
    53.1800       194
    53.2000       210
    53.2200       184
    53.2400       160
    53.2600       144
    53.2800       144
    53.3000       104
    53.3200       112
    53.3400       100
    53.3600       106
    53.3800        92
    53.4000        72
    53.4200        56
    53.4400        42
    53.4600        60
    53.4800        52
    53.5000        44
    53.5200        46
    53.5400        42
    53.5600        52
    53.5800        42
    53.6000        46
    53.6200        56
    53.6400        58
    53.6600        58
    53.6800        60
    53.7000        54
    53.7200        52
    53.7400        46
    53.7600        52
    53.7800        50
    53.8000        32
    53.8200        54
    53.8400        60
    53.8600        48
    53.8800        66
    53.9000        60
    53.9200        62
    53.9400        78
    53.9600        68
    53.9800        62
    54.0000        78
    54.0200        82
    54.0400        88
    54.0600        90
    54.0800        94
    54.1000        84
    54.1200       116
    54.1400       132
    54.1600       154
    54.1800       158
    54.2000       176
    54.2200       168
    54.2400       140
    54.2600       116
    54.2800       110
    54.3000       108
    54.3200       112
    54.3400       112
    54.3600       104
    54.3800        96
    54.4000        82
    54.4200        74
    54.4400        66
    54.4600        74
    54.4800        40
    54.5000        38
    54.5200        56
    54.5400        50
    54.5600        52
    54.5800        56
    54.6000        42
    54.6200        62
    54.6400        60
    54.6600        44
    54.6800        48
    54.7000        54
    54.7200        76
    54.7400        56
    54.7600        64
    54.7800        50
    54.8000        66
    54.8200        52
    54.8400        58
    54.8600        68
    54.8800        50
    54.9000        64
    54.9200        56
    54.9400        58
    54.9600        50
    54.9800        42
    55.0000        62
    55.0200        56
    55.0400       104
    55.0600        66
    55.0800       112
    55.1000       118
    55.1200       112
    55.1400       102
    55.1600       108
    55.1800       118
    55.2000       110
    55.2200       102
    55.2400       104
    55.2600        98
    55.2800        86
    55.3000        70
    55.3200        76
    55.3400        66
    55.3600        70
    55.3800        84
    55.4000        68
    55.4200        56
    55.4400        54
    55.4600        54
    55.4800        44
    55.5000        48
    55.5200        56
    55.5400        52
    55.5600        34
    55.5800        54
    55.6000        46
    55.6200        42
    55.6400        58
    55.6600        52
    55.6800        62
    55.7000        66
    55.7200        62
    55.7400        92
    55.7600       100
    55.7800        90
    55.8000        92
    55.8200       138
    55.8400       114
    55.8600        96
    55.8800       116
    55.9000        94
    55.9200        88
    55.9400        92
    55.9600        82
    55.9800       114
    56.0000        86
    56.0200        78
    56.0400        82
    56.0600        84
    56.0800        50
    56.1000        86
    56.1200        78
    56.1400        88
    56.1600       100
    56.1800        76
    56.2000        72
    56.2200        86
    56.2400        66
    56.2600        86
    56.2800        48
    56.3000        68
    56.3200        78
    56.3400        74
    56.3600        62
    56.3800        48
    56.4000        70
    56.4200        42
    56.4400        52
    56.4600        42
    56.4800        54
    56.5000        42
    56.5200        50
    56.5400        36
    56.5600        52
    56.5800        42
    56.6000        44
    56.6200        46
    56.6400        44
    56.6600        44
    56.6800        34
    56.7000        42
    56.7200        50
    56.7400        46
    56.7600        58
    56.7800        68
    56.8000        48
    56.8200        50
    56.8400        50
    56.8600        48
    56.8800        50
    56.9000        60
    56.9200        54
    56.9400        56
    56.9600        56
    56.9800        46
    57.0000        52
    57.0200        46
    57.0400        46
    57.0600        34
    57.0800        54
    57.1000        56
    57.1200        46
    57.1400        46
    57.1600        34
    57.1800        44
    57.2000        38
    57.2200        44
    57.2400        58
    57.2600        48
    57.2800        50
    57.3000        36
    57.3200        54
    57.3400        52
    57.3600        44
    57.3800        50
    57.4000        46
    57.4200        60
    57.4400        46
    57.4600        38
    57.4800        46
    57.5000        50
    57.5200        54
    57.5400        44
    57.5600        46
    57.5800        52
    57.6000        42
    57.6200        42
    57.6400        42
    57.6600        42
    57.6800        44
    57.7000        40
    57.7200        44
    57.7400        44
    57.7600        56
    57.7800        44
    57.8000        48
    57.8200        42
    57.8400        58
    57.8600        42
    57.8800        44
    57.9000        38
    57.9200        44
    57.9400        38
    57.9600        54
    57.9800        52
    58.0000        68
    58.0200        48
    58.0400        60
    58.0600        50
    58.0800        42
    58.1000        62
    58.1200        64
    58.1400        64
    58.1600        72
    58.1800        64
    58.2000        68
    58.2200        72
    58.2400        56
    58.2600        54
    58.2800        36
    58.3000        50
    58.3200        44
    58.3400        62
    58.3600        50
    58.3800        70
    58.4000        42
    58.4200        48
    58.4400        36
    58.4600        38
    58.4800        36
    58.5000        52
    58.5200        40
    58.5400        44
    58.5600        44
    58.5800        52
    58.6000        48
    58.6200        50
    58.6400        42
    58.6600        50
    58.6800        34
    58.7000        42
    58.7200        38
    58.7400        44
    58.7600        40
    58.7800        36
    58.8000        44
    58.8200        34
    58.8400        52
    58.8600        44
    58.8800        30
    58.9000        44
    58.9200        38
    58.9400        44
    58.9600        34
    58.9800        30
    59.0000        50
    59.0200        46
    59.0400        40
    59.0600        60
    59.0800        56
    59.1000        46
    59.1200        28
    59.1400        52
    59.1600        50
    59.1800        56
    59.2000        42
    59.2200        66
    59.2400        64
    59.2600        68
    59.2800        78
    59.3000       126
    59.3200       144
    59.3400       164
    59.3600       170
    59.3800       158
    59.4000       152
    59.4200       122
    59.4400       110
    59.4600       106
    59.4800       112
    59.5000       146
    59.5200       118
    59.5400       120
    59.5600       110
    59.5800        86
    59.6000        78
    59.6200        68
    59.6400        60
    59.6600        66
    59.6800        60
    59.7000        52
    59.7200        38
    59.7400        62
    59.7600        48
    59.7800        64
    59.8000        62
    59.8200        74
    59.8400        62
    59.8600        80
    59.8800        74
    59.9000        66
    59.9200        72
    59.9400        62
    59.9600        76
    59.9800        82
    60.0000        58
    60.0200        66
    60.0400        46
    60.0600        72
    60.0800        64
    60.1000        66
    60.1200        56
    60.1400        58
    60.1600        52
    60.1800        58
    60.2000        60
    60.2200        54
    60.2400        52
    60.2600        42
    60.2800        44
    60.3000        58
    60.3200        60
    60.3400        46
    60.3600        46
    60.3800        50
    60.4000        44
    60.4200        44
    60.4400        40
    60.4600        46
    60.4800        48
    60.5000        46
    60.5200        52
    60.5400        42
    60.5600        46
    60.5800        62
    60.6000        46
    60.6200        60
    60.6400        38
    60.6600        58
    60.6800        38
    60.7000        58
    60.7200        64
    60.7400        58
    60.7600        76
    60.7800        90
    60.8000       126
    60.8200       144
    60.8400       172
    60.8600       182
    60.8800       192
    60.9000       162
    60.9200       128
    60.9400       100
    60.9600        92
    60.9800       116
    61.0000       122
    61.0200       110
    61.0400       136
    61.0600       130
    61.0800       104
    61.1000       118
    61.1200       134
    61.1400       120
    61.1600       136
    61.1800       108
    61.2000        84
    61.2200        90
    61.2400        76
    61.2600        80
    61.2800        74
    61.3000        86
    61.3200        90
    61.3400        88
    61.3600        70
    61.3800        50
    61.4000        66
    61.4200        74
    61.4400        54
    61.4600        66
    61.4800        50
    61.5000        54
    61.5200        48
    61.5400        54
    61.5600        52
    61.5800        54
    61.6000        50
    61.6200        60
    61.6400        26
    61.6600        40
    61.6800        34
    61.7000        36
    61.7200        58
    61.7400        60
    61.7600        42
    61.7800        44
    61.8000        38
    61.8200        50
    61.8400        50
    61.8600        52
    61.8800        66
    61.9000        68
    61.9200        60
    61.9400        40
    61.9600        52
    61.9800        36
    62.0000        54
    62.0200        42
    62.0400        48
    62.0600        48
    62.0800        56
    62.1000        46
    62.1200        40
    62.1400        66
    62.1600        38
    62.1800        44
    62.2000        48
    62.2200        46
    62.2400        48
    62.2600        50
    62.2800        46
    62.3000        58
    62.3200        54
    62.3400        48
    62.3600        86
    62.3800        66
    62.4000        88
    62.4200       102
    62.4400       108
    62.4600        78
    62.4800        92
    62.5000        88
    62.5200       104
    62.5400       100
    62.5600       106
    62.5800        90
    62.6000        98
    62.6200        80
    62.6400        84
    62.6600        80
    62.6800        78
    62.7000        74
    62.7200        60
    62.7400        66
    62.7600        52
    62.7800        56
    62.8000        52
    62.8200        58
    62.8400        54
    62.8600        44
    62.8800        44
    62.9000        46
    62.9200        42
    62.9400        30
    62.9600        70
    62.9800        54
    63.0000        42
    63.0200        50
    63.0400        46
    63.0600        46
    63.0800        54
    63.1000        66
    63.1200        58
    63.1400        56
    63.1600        58
    63.1800        44
    63.2000        46
    63.2200        46
    63.2400        52
    63.2600        46
    63.2800        46
    63.3000        54
    63.3200        36
    63.3400        40
    63.3600        46
    63.3800        42
    63.4000        42
    63.4200        38
    63.4400        50
    63.4600        42
    63.4800        44
    63.5000        46
    63.5200        56
    63.5400        44
    63.5600        52
    63.5800        46
    63.6000        54
    63.6200        58
    63.6400        40
    63.6600        32
    63.6800        50
    63.7000        60
    63.7200        62
    63.7400        42
    63.7600        44
    63.7800        48
    63.8000        38
    63.8200        36
    63.8400        54
    63.8600        54
    63.8800        50
    63.9000        54
    63.9200        50
    63.9400        60
    63.9600        68
    63.9800        56
    64.0000        58
    64.0200        44
    64.0400        52
    64.0600        52
    64.0800        58
    64.1000        54
    64.1200        52
    64.1400        60
    64.1600        50
    64.1800        64
    64.2000        76
    64.2200        60
    64.2400        66
    64.2600        70
    64.2800        92
    64.3000        68
    64.3200        80
    64.3400        80
    64.3600        60
    64.3800        62
    64.4000        58
    64.4200        68
    64.4400        66
    64.4600        70
    64.4800        52
    64.5000        64
    64.5200        46
    64.5400        48
    64.5600        50
    64.5800        44
    64.6000        46
    64.6200        56
    64.6400        42
    64.6600        64
    64.6800        48
    64.7000        48
    64.7200        44
    64.7400        42
    64.7600        52
    64.7800        40
    64.8000        42
    64.8200        36
    64.8400        42
    64.8600        40
    64.8800        46
    64.9000        46
    64.9200        52
    64.9400        38
    64.9600        32
    64.9800        36
    65.0000        30
