/////////////////////////////////////////////////////////////////////////////////
/// Profile Data Ascii Dump (XRD)                                             ///
/////////////////////////////////////////////////////////////////////////////////

  Group     : GPlumlee
  Data      : WS708
  File Name : WS708.RAW

# Profile Datafile
          comment             = Bytownite-Hoefen 
          date & time         = 08-04-16 08:15:19 

# Measurement Condition
    X-ray tube
          target              = Cu 
          voltage             = 40.0 (kV)
          current             = 30.0 (mA)
    Slits
          divergence slit     = 2.00000 (deg) 
          scatter slit        = 2.00000 (deg) 
          receiving slit      = 0.15000 (mm)  
    Scanning
          drive axis          = Theta-2Theta 
          scan range          =    4.000 -   65.000 
          scan mode           = Continuous Scan 
          scan speed          =   2.0000 (deg/min) 
          sampling pitch      =   0.0200 (deg) 
          preset time         =   0.60 (sec) 

# Data      [ Total No. = 3051 ]
  <2Theta>   <   I   >
     4.0000       190
     4.0200       166
     4.0400       184
     4.0600       198
     4.0800       162
     4.1000       168
     4.1200       174
     4.1400       182
     4.1600       150
     4.1800       194
     4.2000       186
     4.2200       170
     4.2400       178
     4.2600       180
     4.2800       148
     4.3000       186
     4.3200       140
     4.3400       164
     4.3600       168
     4.3800       164
     4.4000       162
     4.4200       158
     4.4400       154
     4.4600       170
     4.4800       142
     4.5000       140
     4.5200       178
     4.5400       166
     4.5600       140
     4.5800       136
     4.6000       158
     4.6200       150
     4.6400       170
     4.6600       160
     4.6800       166
     4.7000       162
     4.7200       142
     4.7400       154
     4.7600       158
     4.7800       154
     4.8000       158
     4.8200       152
     4.8400       146
     4.8600       146
     4.8800       140
     4.9000       130
     4.9200       172
     4.9400       136
     4.9600       160
     4.9800       154
     5.0000       168
     5.0200       158
     5.0400       160
     5.0600       148
     5.0800       160
     5.1000       148
     5.1200       178
     5.1400       144
     5.1600       152
     5.1800       156
     5.2000       150
     5.2200       148
     5.2400       158
     5.2600       178
     5.2800       168
     5.3000       144
     5.3200       168
     5.3400       146
     5.3600       142
     5.3800       148
     5.4000       156
     5.4200       150
     5.4400       128
     5.4600       140
     5.4800       166
     5.5000       152
     5.5200       170
     5.5400       150
     5.5600       162
     5.5800       132
     5.6000       154
     5.6200       164
     5.6400       160
     5.6600       148
     5.6800       160
     5.7000       140
     5.7200       140
     5.7400       168
     5.7600       164
     5.7800       158
     5.8000       162
     5.8200       150
     5.8400       156
     5.8600       158
     5.8800       142
     5.9000       154
     5.9200       132
     5.9400       138
     5.9600       158
     5.9800       144
     6.0000       140
     6.0200       160
     6.0400       132
     6.0600       166
     6.0800       154
     6.1000       140
     6.1200       166
     6.1400       158
     6.1600       138
     6.1800       140
     6.2000       138
     6.2200       130
     6.2400       152
     6.2600       142
     6.2800       144
     6.3000       124
     6.3200       140
     6.3400       134
     6.3600       166
     6.3800       138
     6.4000       130
     6.4200       120
     6.4400       134
     6.4600       158
     6.4800       120
     6.5000       118
     6.5200       140
     6.5400       112
     6.5600       130
     6.5800       140
     6.6000       148
     6.6200        98
     6.6400       120
     6.6600       146
     6.6800       126
     6.7000       120
     6.7200       110
     6.7400       122
     6.7600       114
     6.7800       124
     6.8000       114
     6.8200       140
     6.8400       124
     6.8600       142
     6.8800       142
     6.9000       106
     6.9200       114
     6.9400       114
     6.9600       122
     6.9800       130
     7.0000       126
     7.0200       116
     7.0400       120
     7.0600       116
     7.0800       124
     7.1000       120
     7.1200       110
     7.1400       106
     7.1600       120
     7.1800       110
     7.2000       128
     7.2200       106
     7.2400       120
     7.2600       114
     7.2800       106
     7.3000       108
     7.3200        96
     7.3400       108
     7.3600       110
     7.3800       122
     7.4000       112
     7.4200       104
     7.4400       120
     7.4600       100
     7.4800       124
     7.5000        90
     7.5200       100
     7.5400       110
     7.5600       100
     7.5800        96
     7.6000       124
     7.6200       122
     7.6400       104
     7.6600       118
     7.6800       106
     7.7000       128
     7.7200       122
     7.7400       116
     7.7600        92
     7.7800       120
     7.8000       104
     7.8200       102
     7.8400        92
     7.8600        88
     7.8800       116
     7.9000        92
     7.9200       118
     7.9400       116
     7.9600       118
     7.9800        90
     8.0000       104
     8.0200       120
     8.0400       108
     8.0600       114
     8.0800       114
     8.1000        80
     8.1200       116
     8.1400       128
     8.1600       110
     8.1800       108
     8.2000       112
     8.2200       104
     8.2400       112
     8.2600       102
     8.2800       110
     8.3000       116
     8.3200       110
     8.3400        98
     8.3600       112
     8.3800       126
     8.4000       110
     8.4200       122
     8.4400        92
     8.4600       116
     8.4800       124
     8.5000       106
     8.5200       112
     8.5400       104
     8.5600       100
     8.5800        90
     8.6000       110
     8.6200       122
     8.6400       112
     8.6600       112
     8.6800       112
     8.7000       126
     8.7200       104
     8.7400       108
     8.7600        92
     8.7800       108
     8.8000       118
     8.8200       112
     8.8400       118
     8.8600       100
     8.8800        96
     8.9000       118
     8.9200       102
     8.9400       114
     8.9600       110
     8.9800       108
     9.0000       100
     9.0200       138
     9.0400       104
     9.0600       116
     9.0800       110
     9.1000       106
     9.1200       118
     9.1400       126
     9.1600       108
     9.1800       102
     9.2000       114
     9.2200       108
     9.2400        96
     9.2600       104
     9.2800       122
     9.3000       134
     9.3200        98
     9.3400       138
     9.3600       108
     9.3800       100
     9.4000       114
     9.4200       110
     9.4400       106
     9.4600       114
     9.4800       118
     9.5000       110
     9.5200        98
     9.5400       128
     9.5600        96
     9.5800       112
     9.6000       114
     9.6200       124
     9.6400       110
     9.6600       104
     9.6800       110
     9.7000        84
     9.7200        94
     9.7400        96
     9.7600       114
     9.7800       100
     9.8000        90
     9.8200       116
     9.8400       106
     9.8600        94
     9.8800       106
     9.9000        98
     9.9200        94
     9.9400        86
     9.9600       106
     9.9800       106
    10.0000       104
    10.0200       110
    10.0400       100
    10.0600       100
    10.0800        96
    10.1000        86
    10.1200       108
    10.1400       106
    10.1600        84
    10.1800        96
    10.2000       108
    10.2200        88
    10.2400        92
    10.2600        82
    10.2800        98
    10.3000       106
    10.3200       100
    10.3400       100
    10.3600       100
    10.3800       100
    10.4000        90
    10.4200        86
    10.4400       102
    10.4600       112
    10.4800        92
    10.5000       100
    10.5200       104
    10.5400       102
    10.5600        86
    10.5800        88
    10.6000       102
    10.6200        98
    10.6400        86
    10.6600        96
    10.6800       100
    10.7000        78
    10.7200        86
    10.7400        92
    10.7600        88
    10.7800       102
    10.8000        74
    10.8200        96
    10.8400        98
    10.8600       108
    10.8800        88
    10.9000        74
    10.9200        88
    10.9400        84
    10.9600        86
    10.9800        86
    11.0000        90
    11.0200        76
    11.0400        96
    11.0600        94
    11.0800        98
    11.1000        86
    11.1200        88
    11.1400        80
    11.1600        84
    11.1800        92
    11.2000        90
    11.2200        92
    11.2400        94
    11.2600        90
    11.2800        96
    11.3000        76
    11.3200        76
    11.3400        76
    11.3600        94
    11.3800        84
    11.4000        78
    11.4200        86
    11.4400        72
    11.4600        76
    11.4800        82
    11.5000        78
    11.5200        84
    11.5400        74
    11.5600        66
    11.5800        86
    11.6000        86
    11.6200        70
    11.6400       102
    11.6600        86
    11.6800        86
    11.7000        74
    11.7200        68
    11.7400        92
    11.7600        76
    11.7800        80
    11.8000        90
    11.8200        76
    11.8400        80
    11.8600        88
    11.8800        84
    11.9000        78
    11.9200        74
    11.9400        62
    11.9600        86
    11.9800        74
    12.0000        92
    12.0200        74
    12.0400        94
    12.0600        80
    12.0800        70
    12.1000        78
    12.1200        92
    12.1400        96
    12.1600        84
    12.1800        74
    12.2000        74
    12.2200        92
    12.2400        80
    12.2600        78
    12.2800        70
    12.3000        76
    12.3200        82
    12.3400        84
    12.3600        94
    12.3800        82
    12.4000        68
    12.4200        84
    12.4400        60
    12.4600        64
    12.4800        62
    12.5000        74
    12.5200        80
    12.5400        62
    12.5600        88
    12.5800        68
    12.6000        72
    12.6200        74
    12.6400        98
    12.6600        80
    12.6800        84
    12.7000        60
    12.7200        74
    12.7400        80
    12.7600        70
    12.7800        94
    12.8000        90
    12.8200        72
    12.8400        72
    12.8600        72
    12.8800        82
    12.9000        74
    12.9200        68
    12.9400        72
    12.9600        82
    12.9800        78
    13.0000        84
    13.0200        72
    13.0400        72
    13.0600        80
    13.0800        72
    13.1000        76
    13.1200        56
    13.1400        74
    13.1600        80
    13.1800        70
    13.2000        72
    13.2200        68
    13.2400        74
    13.2600        70
    13.2800        88
    13.3000        56
    13.3200        82
    13.3400        72
    13.3600        82
    13.3800        94
    13.4000        78
    13.4200        74
    13.4400        84
    13.4600        92
    13.4800       102
    13.5000        98
    13.5200       112
    13.5400        96
    13.5600       120
    13.5800       126
    13.6000       120
    13.6200        90
    13.6400        86
    13.6600        86
    13.6800        72
    13.7000        72
    13.7200        70
    13.7400        72
    13.7600        96
    13.7800        64
    13.8000        80
    13.8200        70
    13.8400        70
    13.8600        76
    13.8800        74
    13.9000        68
    13.9200        84
    13.9400        66
    13.9600        74
    13.9800        66
    14.0000        82
    14.0200        68
    14.0400        86
    14.0600        66
    14.0800        58
    14.1000        58
    14.1200        74
    14.1400        68
    14.1600        48
    14.1800        72
    14.2000        64
    14.2200        66
    14.2400        52
    14.2600        82
    14.2800        48
    14.3000        64
    14.3200        66
    14.3400        60
    14.3600        84
    14.3800        78
    14.4000        60
    14.4200        50
    14.4400        48
    14.4600        76
    14.4800        56
    14.5000        68
    14.5200        88
    14.5400        78
    14.5600        56
    14.5800        64
    14.6000        64
    14.6200        54
    14.6400        56
    14.6600        62
    14.6800        70
    14.7000        64
    14.7200        58
    14.7400        54
    14.7600        58
    14.7800        66
    14.8000        64
    14.8200        52
    14.8400        70
    14.8600        56
    14.8800        54
    14.9000        52
    14.9200        72
    14.9400        76
    14.9600        74
    14.9800        64
    15.0000        58
    15.0200        58
    15.0400        54
    15.0600        58
    15.0800        64
    15.1000        60
    15.1200        52
    15.1400        56
    15.1600        64
    15.1800        68
    15.2000        72
    15.2200        70
    15.2400        64
    15.2600        56
    15.2800        64
    15.3000        64
    15.3200        58
    15.3400        70
    15.3600        62
    15.3800        60
    15.4000        62
    15.4200        64
    15.4400        62
    15.4600        50
    15.4800        56
    15.5000        74
    15.5200        70
    15.5400        52
    15.5600        52
    15.5800        54
    15.6000        54
    15.6200        46
    15.6400        68
    15.6600        60
    15.6800        66
    15.7000        48
    15.7200        62
    15.7400        58
    15.7600        64
    15.7800        58
    15.8000        64
    15.8200        70
    15.8400        54
    15.8600        52
    15.8800        52
    15.9000        62
    15.9200        66
    15.9400        64
    15.9600        56
    15.9800        68
    16.0000        52
    16.0200        64
    16.0400        72
    16.0600        56
    16.0800        60
    16.1000        58
    16.1200        72
    16.1400        60
    16.1600        48
    16.1800        62
    16.2000        52
    16.2200        62
    16.2400        52
    16.2600        54
    16.2800        62
    16.3000        34
    16.3200        48
    16.3400        64
    16.3600        54
    16.3800        52
    16.4000        62
    16.4200        54
    16.4400        60
    16.4600        62
    16.4800        66
    16.5000        60
    16.5200        48
    16.5400        48
    16.5600        56
    16.5800        60
    16.6000        48
    16.6200        58
    16.6400        58
    16.6600        56
    16.6800        42
    16.7000        54
    16.7200        50
    16.7400        54
    16.7600        60
    16.7800        48
    16.8000        48
    16.8200        52
    16.8400        76
    16.8600        66
    16.8800        66
    16.9000        52
    16.9200        60
    16.9400        52
    16.9600        48
    16.9800        64
    17.0000        48
    17.0200        42
    17.0400        60
    17.0600        58
    17.0800        42
    17.1000        60
    17.1200        52
    17.1400        52
    17.1600        44
    17.1800        64
    17.2000        60
    17.2200        58
    17.2400        54
    17.2600        56
    17.2800        48
    17.3000        62
    17.3200        58
    17.3400        68
    17.3600        56
    17.3800        46
    17.4000        44
    17.4200        54
    17.4400        54
    17.4600        62
    17.4800        56
    17.5000        54
    17.5200        54
    17.5400        56
    17.5600        48
    17.5800        62
    17.6000        50
    17.6200        46
    17.6400        64
    17.6600        64
    17.6800        64
    17.7000        60
    17.7200        64
    17.7400        60
    17.7600        60
    17.7800        52
    17.8000        60
    17.8200        54
    17.8400        56
    17.8600        58
    17.8800        54
    17.9000        46
    17.9200        72
    17.9400        52
    17.9600        58
    17.9800        60
    18.0000        62
    18.0200        70
    18.0400        50
    18.0600        46
    18.0800        50
    18.1000        50
    18.1200        62
    18.1400        64
    18.1600        68
    18.1800        52
    18.2000        60
    18.2200        40
    18.2400        42
    18.2600        56
    18.2800        58
    18.3000        46
    18.3200        48
    18.3400        60
    18.3600        56
    18.3800        52
    18.4000        56
    18.4200        56
    18.4400        46
    18.4600        66
    18.4800        50
    18.5000        64
    18.5200        56
    18.5400        60
    18.5600        74
    18.5800        42
    18.6000        58
    18.6200        74
    18.6400        64
    18.6600        70
    18.6800        92
    18.7000        82
    18.7200       102
    18.7400       124
    18.7600       104
    18.7800       154
    18.8000       140
    18.8200       148
    18.8400       124
    18.8600        92
    18.8800        78
    18.9000        66
    18.9200        56
    18.9400        60
    18.9600        50
    18.9800        50
    19.0000        52
    19.0200        54
    19.0400        54
    19.0600        58
    19.0800        54
    19.1000        64
    19.1200        60
    19.1400        36
    19.1600        52
    19.1800        42
    19.2000        50
    19.2200        56
    19.2400        46
    19.2600        60
    19.2800        48
    19.3000        66
    19.3200        58
    19.3400        56
    19.3600        54
    19.3800        46
    19.4000        44
    19.4200        52
    19.4400        36
    19.4600        46
    19.4800        52
    19.5000        44
    19.5200        60
    19.5400        60
    19.5600        52
    19.5800        40
    19.6000        50
    19.6200        52
    19.6400        58
    19.6600        48
    19.6800        68
    19.7000        60
    19.7200        48
    19.7400        58
    19.7600        48
    19.7800        66
    19.8000        58
    19.8200        56
    19.8400        54
    19.8600        50
    19.8800        66
    19.9000        46
    19.9200        54
    19.9400        46
    19.9600        54
    19.9800        46
    20.0000        60
    20.0200        60
    20.0400        66
    20.0600        48
    20.0800        44
    20.1000        50
    20.1200        62
    20.1400        56
    20.1600        56
    20.1800        56
    20.2000        34
    20.2200        56
    20.2400        46
    20.2600        52
    20.2800        60
    20.3000        46
    20.3200        42
    20.3400        40
    20.3600        54
    20.3800        48
    20.4000        54
    20.4200        56
    20.4400        54
    20.4600        46
    20.4800        56
    20.5000        42
    20.5200        44
    20.5400        40
    20.5600        60
    20.5800        40
    20.6000        48
    20.6200        52
    20.6400        48
    20.6600        46
    20.6800        46
    20.7000        64
    20.7200        46
    20.7400        52
    20.7600        60
    20.7800        48
    20.8000        62
    20.8200        52
    20.8400        56
    20.8600        58
    20.8800        56
    20.9000        46
    20.9200        48
    20.9400        60
    20.9600        58
    20.9800        54
    21.0000        58
    21.0200        48
    21.0400        68
    21.0600        48
    21.0800        66
    21.1000        56
    21.1200        54
    21.1400        60
    21.1600        44
    21.1800        60
    21.2000        58
    21.2200        50
    21.2400        50
    21.2600        48
    21.2800        66
    21.3000        44
    21.3200        52
    21.3400        64
    21.3600        56
    21.3800        64
    21.4000        70
    21.4200        56
    21.4400        68
    21.4600        56
    21.4800        76
    21.5000        66
    21.5200        66
    21.5400        74
    21.5600       104
    21.5800        68
    21.6000        70
    21.6200        94
    21.6400       108
    21.6600       120
    21.6800       124
    21.7000       134
    21.7200       122
    21.7400       156
    21.7600       224
    21.7800       282
    21.8000       374
    21.8200       408
    21.8400       434
    21.8600       422
    21.8800       394
    21.9000       334
    21.9200       290
    21.9400       224
    21.9600       172
    21.9800       132
    22.0000       114
    22.0200        76
    22.0400        88
    22.0600        62
    22.0800        72
    22.1000        72
    22.1200        66
    22.1400        48
    22.1600        58
    22.1800        62
    22.2000        62
    22.2200        66
    22.2400        54
    22.2600        60
    22.2800        52
    22.3000        60
    22.3200        56
    22.3400        58
    22.3600        62
    22.3800        80
    22.4000        72
    22.4200        62
    22.4400        62
    22.4600        72
    22.4800        72
    22.5000       106
    22.5200       116
    22.5400       136
    22.5600       130
    22.5800       184
    22.6000       168
    22.6200       196
    22.6400       184
    22.6600       194
    22.6800       148
    22.7000       152
    22.7200       136
    22.7400        90
    22.7600        76
    22.7800        74
    22.8000        54
    22.8200        52
    22.8400        46
    22.8600        54
    22.8800        52
    22.9000        52
    22.9200        52
    22.9400        58
    22.9600        48
    22.9800        46
    23.0000        60
    23.0200        64
    23.0400        70
    23.0600        60
    23.0800        62
    23.1000        66
    23.1200        66
    23.1400        82
    23.1600        68
    23.1800        92
    23.2000        66
    23.2200        86
    23.2400        88
    23.2600        92
    23.2800       108
    23.3000        90
    23.3200       122
    23.3400       142
    23.3600       160
    23.3800       186
    23.4000       236
    23.4200       298
    23.4400       380
    23.4600       512
    23.4800       670
    23.5000       718
    23.5200       636
    23.5400       662
    23.5600       638
    23.5800       496
    23.6000       376
    23.6200       294
    23.6400       192
    23.6600       134
    23.6800       110
    23.7000        84
    23.7200        78
    23.7400        50
    23.7600        54
    23.7800        64
    23.8000        46
    23.8200        56
    23.8400        66
    23.8600        74
    23.8800        66
    23.9000        48
    23.9200        74
    23.9400        52
    23.9600        62
    23.9800        66
    24.0000        56
    24.0200        70
    24.0400        84
    24.0600        82
    24.0800        76
    24.1000        78
    24.1200        92
    24.1400       114
    24.1600       124
    24.1800       126
    24.2000       156
    24.2200       168
    24.2400       170
    24.2600       232
    24.2800       302
    24.3000       316
    24.3200       356
    24.3400       378
    24.3600       380
    24.3800       382
    24.4000       312
    24.4200       336
    24.4400       310
    24.4600       244
    24.4800       214
    24.5000       172
    24.5200       128
    24.5400       110
    24.5600       102
    24.5800        80
    24.6000        72
    24.6200        70
    24.6400        54
    24.6600        48
    24.6800        54
    24.7000        44
    24.7200        62
    24.7400        54
    24.7600        50
    24.7800        52
    24.8000        50
    24.8200        58
    24.8400        38
    24.8600        54
    24.8800        64
    24.9000        52
    24.9200        46
    24.9400        48
    24.9600        54
    24.9800        52
    25.0000        44
    25.0200        48
    25.0400        60
    25.0600        68
    25.0800        64
    25.1000        62
    25.1200        64
    25.1400        64
    25.1600        64
    25.1800        58
    25.2000        72
    25.2200        70
    25.2400        70
    25.2600        74
    25.2800        56
    25.3000       114
    25.3200        98
    25.3400       104
    25.3600        88
    25.3800        86
    25.4000       110
    25.4200       108
    25.4400       122
    25.4600       166
    25.4800       166
    25.5000       152
    25.5200       198
    25.5400       186
    25.5600       148
    25.5800       142
    25.6000       122
    25.6200        96
    25.6400        82
    25.6600        88
    25.6800        76
    25.7000        58
    25.7200        62
    25.7400        76
    25.7600        70
    25.7800        68
    25.8000        74
    25.8200        72
    25.8400        90
    25.8600        74
    25.8800        68
    25.9000        84
    25.9200       108
    25.9400        96
    25.9600        78
    25.9800        86
    26.0000        64
    26.0200        82
    26.0400        78
    26.0600        74
    26.0800        70
    26.1000        82
    26.1200        70
    26.1400        76
    26.1600        80
    26.1800        92
    26.2000        92
    26.2200       120
    26.2400       146
    26.2600       184
    26.2800       196
    26.3000       238
    26.3200       302
    26.3400       310
    26.3600       338
    26.3800       266
    26.4000       260
    26.4200       230
    26.4400       162
    26.4600       146
    26.4800        92
    26.5000       100
    26.5200        92
    26.5400        78
    26.5600        70
    26.5800        58
    26.6000        78
    26.6200        62
    26.6400        58
    26.6600        66
    26.6800        74
    26.7000        66
    26.7200        56
    26.7400        74
    26.7600        52
    26.7800        42
    26.8000        58
    26.8200        64
    26.8400        62
    26.8600        66
    26.8800        58
    26.9000        68
    26.9200        54
    26.9400        66
    26.9600        78
    26.9800        82
    27.0000        72
    27.0200        84
    27.0400        84
    27.0600        80
    27.0800        84
    27.1000        96
    27.1200        78
    27.1400       118
    27.1600       136
    27.1800       146
    27.2000       132
    27.2200       184
    27.2400       224
    27.2600       238
    27.2800       244
    27.3000       298
    27.3200       362
    27.3400       476
    27.3600       594
    27.3800       680
    27.4000       646
    27.4200       584
    27.4400       600
    27.4600       552
    27.4800       458
    27.5000       470
    27.5200       514
    27.5400       626
    27.5600       728
    27.5800       862
    27.6000      1080
    27.6200      1226
    27.6400      1426
    27.6600      1642
    27.6800      1568
    27.7000      1514
    27.7200      1446
    27.7400      1448
    27.7600      1446
    27.7800      1458
    27.8000      1590
    27.8200      1808
    27.8400      2212
    27.8600      2524
    27.8800      2650
    27.9000      3208
    27.9200      3418
    27.9400      3206
    27.9600      2534
    27.9800      2010
    28.0000      1722
    28.0200      1332
    28.0400       774
    28.0600       470
    28.0800       364
    28.1000       264
    28.1200       178
    28.1400       176
    28.1600       174
    28.1800       210
    28.2000       178
    28.2200       208
    28.2400       218
    28.2600       242
    28.2800       282
    28.3000       302
    28.3200       362
    28.3400       350
    28.3600       362
    28.3800       300
    28.4000       278
    28.4200       212
    28.4400       182
    28.4600       140
    28.4800       130
    28.5000       104
    28.5200        82
    28.5400        54
    28.5600        68
    28.5800        56
    28.6000        90
    28.6200        52
    28.6400        68
    28.6600        72
    28.6800        52
    28.7000        56
    28.7200        48
    28.7400        46
    28.7600        54
    28.7800        58
    28.8000        68
    28.8200        68
    28.8400        42
    28.8600        34
    28.8800        58
    28.9000        54
    28.9200        66
    28.9400        54
    28.9600        46
    28.9800        54
    29.0000        74
    29.0200        60
    29.0400        62
    29.0600        72
    29.0800        66
    29.1000        60
    29.1200        62
    29.1400        70
    29.1600        70
    29.1800        80
    29.2000        92
    29.2200        94
    29.2400       124
    29.2600       158
    29.2800       170
    29.3000       220
    29.3200       244
    29.3400       264
    29.3600       282
    29.3800       296
    29.4000       244
    29.4200       222
    29.4400       208
    29.4600       140
    29.4800       124
    29.5000        84
    29.5200        78
    29.5400        68
    29.5600        68
    29.5800        48
    29.6000        54
    29.6200        66
    29.6400        60
    29.6600        42
    29.6800        52
    29.7000        58
    29.7200        40
    29.7400        42
    29.7600        48
    29.7800        60
    29.8000        58
    29.8200        82
    29.8400        60
    29.8600        66
    29.8800        64
    29.9000        66
    29.9200       106
    29.9400        94
    29.9600       102
    29.9800       130
    30.0000       122
    30.0200       132
    30.0400       186
    30.0600       218
    30.0800       258
    30.1000       300
    30.1200       344
    30.1400       358
    30.1600       366
    30.1800       350
    30.2000       318
    30.2200       288
    30.2400       254
    30.2600       256
    30.2800       298
    30.3000       310
    30.3200       294
    30.3400       288
    30.3600       250
    30.3800       226
    30.4000       208
    30.4200       176
    30.4400       168
    30.4600       122
    30.4800       112
    30.5000        90
    30.5200       106
    30.5400       110
    30.5600       106
    30.5800       136
    30.6000       116
    30.6200        98
    30.6400        94
    30.6600        90
    30.6800        86
    30.7000        66
    30.7200        58
    30.7400        58
    30.7600        48
    30.7800        46
    30.8000        66
    30.8200        34
    30.8400        46
    30.8600        34
    30.8800        50
    30.9000        44
    30.9200        64
    30.9400        38
    30.9600        48
    30.9800        46
    31.0000        46
    31.0200        68
    31.0400        54
    31.0600        44
    31.0800        46
    31.1000        42
    31.1200        56
    31.1400        74
    31.1600        52
    31.1800        62
    31.2000        84
    31.2200        80
    31.2400        86
    31.2600       106
    31.2800       114
    31.3000       158
    31.3200       188
    31.3400       212
    31.3600       238
    31.3800       314
    31.4000       316
    31.4200       268
    31.4400       326
    31.4600       264
    31.4800       242
    31.5000       200
    31.5200       186
    31.5400       118
    31.5600       136
    31.5800       152
    31.6000       132
    31.6200       132
    31.6400       138
    31.6600       120
    31.6800        92
    31.7000       106
    31.7200        96
    31.7400        88
    31.7600        58
    31.7800        62
    31.8000        50
    31.8200        54
    31.8400        44
    31.8600        60
    31.8800        34
    31.9000        56
    31.9200        44
    31.9400        44
    31.9600        54
    31.9800        42
    32.0000        62
    32.0200        42
    32.0400        38
    32.0600        46
    32.0800        40
    32.1000        52
    32.1200        44
    32.1400        38
    32.1600        38
    32.1800        36
    32.2000        38
    32.2200        58
    32.2400        44
    32.2600        40
    32.2800        34
    32.3000        44
    32.3200        30
    32.3400        40
    32.3600        46
    32.3800        42
    32.4000        28
    32.4200        38
    32.4400        48
    32.4600        40
    32.4800        36
    32.5000        34
    32.5200        36
    32.5400        30
    32.5600        38
    32.5800        40
    32.6000        36
    32.6200        34
    32.6400        28
    32.6600        48
    32.6800        42
    32.7000        22
    32.7200        32
    32.7400        38
    32.7600        32
    32.7800        42
    32.8000        50
    32.8200        32
    32.8400        26
    32.8600        34
    32.8800        38
    32.9000        22
    32.9200        34
    32.9400        38
    32.9600        32
    32.9800        42
    33.0000        46
    33.0200        38
    33.0400        30
    33.0600        34
    33.0800        40
    33.1000        34
    33.1200        52
    33.1400        42
    33.1600        50
    33.1800        30
    33.2000        30
    33.2200        46
    33.2400        36
    33.2600        52
    33.2800        36
    33.3000        48
    33.3200        40
    33.3400        48
    33.3600        44
    33.3800        42
    33.4000        48
    33.4200        62
    33.4400        48
    33.4600        82
    33.4800        78
    33.5000        94
    33.5200        86
    33.5400        92
    33.5600        96
    33.5800       134
    33.6000       154
    33.6200       202
    33.6400       228
    33.6600       238
    33.6800       208
    33.7000       210
    33.7200       156
    33.7400       148
    33.7600       124
    33.7800        96
    33.8000        74
    33.8200        54
    33.8400        74
    33.8600        46
    33.8800        50
    33.9000        40
    33.9200        50
    33.9400        36
    33.9600        44
    33.9800        52
    34.0000        44
    34.0200        38
    34.0400        42
    34.0600        46
    34.0800        36
    34.1000        46
    34.1200        36
    34.1400        40
    34.1600        30
    34.1800        34
    34.2000        40
    34.2200        34
    34.2400        28
    34.2600        44
    34.2800        34
    34.3000        36
    34.3200        46
    34.3400        38
    34.3600        36
    34.3800        32
    34.4000        50
    34.4200        46
    34.4400        30
    34.4600        30
    34.4800        40
    34.5000        44
    34.5200        48
    34.5400        54
    34.5600        38
    34.5800        42
    34.6000        32
    34.6200        48
    34.6400        44
    34.6600        38
    34.6800        48
    34.7000        42
    34.7200        36
    34.7400        42
    34.7600        34
    34.7800        30
    34.8000        44
    34.8200        48
    34.8400        48
    34.8600        38
    34.8800        62
    34.9000        40
    34.9200        60
    34.9400        46
    34.9600        76
    34.9800        60
    35.0000        62
    35.0200        64
    35.0400        84
    35.0600        86
    35.0800        82
    35.1000        78
    35.1200        90
    35.1400        72
    35.1600        78
    35.1800        88
    35.2000        62
    35.2200        58
    35.2400        70
    35.2600       102
    35.2800        76
    35.3000        68
    35.3200        96
    35.3400        98
    35.3600       134
    35.3800       162
    35.4000       188
    35.4200       212
    35.4400       224
    35.4600       234
    35.4800       310
    35.5000       340
    35.5200       388
    35.5400       406
    35.5600       386
    35.5800       362
    35.6000       332
    35.6200       340
    35.6400       296
    35.6600       208
    35.6800       180
    35.7000       156
    35.7200       150
    35.7400       102
    35.7600        98
    35.7800        62
    35.8000        54
    35.8200        54
    35.8400        42
    35.8600        56
    35.8800        46
    35.9000        46
    35.9200        38
    35.9400        48
    35.9600        36
    35.9800        46
    36.0000        38
    36.0200        46
    36.0400        30
    36.0600        38
    36.0800        40
    36.1000        30
    36.1200        34
    36.1400        48
    36.1600        50
    36.1800        64
    36.2000        46
    36.2200        52
    36.2400        50
    36.2600        48
    36.2800        44
    36.3000        48
    36.3200        62
    36.3400        58
    36.3600        72
    36.3800        58
    36.4000        76
    36.4200        54
    36.4400        62
    36.4600        72
    36.4800        64
    36.5000        64
    36.5200        52
    36.5400        70
    36.5600        50
    36.5800        64
    36.6000        54
    36.6200        70
    36.6400        82
    36.6600        78
    36.6800        68
    36.7000        50
    36.7200        56
    36.7400        52
    36.7600        70
    36.7800        58
    36.8000        56
    36.8200        40
    36.8400        52
    36.8600        60
    36.8800        58
    36.9000        54
    36.9200        70
    36.9400        66
    36.9600        58
    36.9800        84
    37.0000        58
    37.0200        78
    37.0400        90
    37.0600        94
    37.0800        90
    37.1000        86
    37.1200        60
    37.1400        92
    37.1600        52
    37.1800        64
    37.2000        58
    37.2200        44
    37.2400        40
    37.2600        38
    37.2800        40
    37.3000        46
    37.3200        54
    37.3400        54
    37.3600        48
    37.3800        64
    37.4000        40
    37.4200        56
    37.4400        52
    37.4600        60
    37.4800        62
    37.5000        56
    37.5200        54
    37.5400        64
    37.5600        36
    37.5800        46
    37.6000        54
    37.6200        52
    37.6400        60
    37.6600        68
    37.6800        52
    37.7000        62
    37.7200        56
    37.7400        70
    37.7600        58
    37.7800        64
    37.8000        90
    37.8200        90
    37.8400        86
    37.8600        86
    37.8800        62
    37.9000        64
    37.9200        60
    37.9400        74
    37.9600        44
    37.9800        50
    38.0000        46
    38.0200        44
    38.0400        60
    38.0600        80
    38.0800        86
    38.1000        64
    38.1200        72
    38.1400        74
    38.1600        72
    38.1800        46
    38.2000        52
    38.2200        60
    38.2400        68
    38.2600        52
    38.2800        32
    38.3000        48
    38.3200        38
    38.3400        44
    38.3600        32
    38.3800        52
    38.4000        32
    38.4200        34
    38.4400        38
    38.4600        34
    38.4800        44
    38.5000        42
    38.5200        34
    38.5400        38
    38.5600        42
    38.5800        40
    38.6000        42
    38.6200        46
    38.6400        40
    38.6600        58
    38.6800        54
    38.7000        62
    38.7200        68
    38.7400        58
    38.7600        78
    38.7800        72
    38.8000        92
    38.8200        84
    38.8400        80
    38.8600        72
    38.8800        76
    38.9000        68
    38.9200        72
    38.9400        60
    38.9600        54
    38.9800        44
    39.0000        42
    39.0200        58
    39.0400        46
    39.0600        38
    39.0800        48
    39.1000        36
    39.1200        34
    39.1400        48
    39.1600        34
    39.1800        44
    39.2000        40
    39.2200        54
    39.2400        54
    39.2600        62
    39.2800        66
    39.3000       122
    39.3200        88
    39.3400       100
    39.3600       100
    39.3800        82
    39.4000        88
    39.4200        90
    39.4400        52
    39.4600        78
    39.4800        74
    39.5000        54
    39.5200        54
    39.5400        66
    39.5600        74
    39.5800        70
    39.6000        74
    39.6200        74
    39.6400        84
    39.6600        76
    39.6800        80
    39.7000        82
    39.7200        66
    39.7400        68
    39.7600        58
    39.7800        62
    39.8000        48
    39.8200        54
    39.8400        56
    39.8600        54
    39.8800        42
    39.9000        46
    39.9200        54
    39.9400        36
    39.9600        44
    39.9800        32
    40.0000        38
    40.0200        34
    40.0400        38
    40.0600        32
    40.0800        38
    40.1000        50
    40.1200        40
    40.1400        50
    40.1600        38
    40.1800        50
    40.2000        50
    40.2200        62
    40.2400        82
    40.2600       106
    40.2800       108
    40.3000        80
    40.3200       104
    40.3400       100
    40.3600        80
    40.3800        90
    40.4000        78
    40.4200        90
    40.4400        54
    40.4600        54
    40.4800        50
    40.5000        44
    40.5200        70
    40.5400        46
    40.5600        48
    40.5800        32
    40.6000        38
    40.6200        42
    40.6400        42
    40.6600        30
    40.6800        32
    40.7000        38
    40.7200        40
    40.7400        38
    40.7600        44
    40.7800        36
    40.8000        30
    40.8200        38
    40.8400        36
    40.8600        24
    40.8800        28
    40.9000        34
    40.9200        28
    40.9400        34
    40.9600        34
    40.9800        38
    41.0000        42
    41.0200        30
    41.0400        36
    41.0600        44
    41.0800        50
    41.1000        38
    41.1200        50
    41.1400        60
    41.1600        54
    41.1800        56
    41.2000        64
    41.2200        54
    41.2400        76
    41.2600        58
    41.2800        64
    41.3000        52
    41.3200        68
    41.3400        36
    41.3600        64
    41.3800        46
    41.4000        40
    41.4200        42
    41.4400        44
    41.4600        40
    41.4800        46
    41.5000        32
    41.5200        34
    41.5400        42
    41.5600        36
    41.5800        50
    41.6000        46
    41.6200        56
    41.6400        56
    41.6600        82
    41.6800        54
    41.7000        74
    41.7200        70
    41.7400        66
    41.7600        74
    41.7800        58
    41.8000        70
    41.8200        62
    41.8400        68
    41.8600        56
    41.8800        54
    41.9000        52
    41.9200        76
    41.9400        92
    41.9600       102
    41.9800       116
    42.0000       154
    42.0200       172
    42.0400       182
    42.0600       190
    42.0800       202
    42.1000       242
    42.1200       248
    42.1400       208
    42.1600       208
    42.1800       236
    42.2000       230
    42.2200       248
    42.2400       264
    42.2600       232
    42.2800       150
    42.3000       158
    42.3200       136
    42.3400       136
    42.3600       122
    42.3800       130
    42.4000        98
    42.4200        76
    42.4400        78
    42.4600        86
    42.4800        76
    42.5000        82
    42.5200        84
    42.5400        80
    42.5600        66
    42.5800        70
    42.6000        66
    42.6200        66
    42.6400        50
    42.6600        64
    42.6800        62
    42.7000        66
    42.7200        46
    42.7400        60
    42.7600        58
    42.7800        62
    42.8000        70
    42.8200        90
    42.8400       100
    42.8600       146
    42.8800       150
    42.9000       174
    42.9200       160
    42.9400       138
    42.9600       156
    42.9800       132
    43.0000       112
    43.0200       116
    43.0400       114
    43.0600       104
    43.0800        78
    43.1000        70
    43.1200        56
    43.1400        66
    43.1600        68
    43.1800        66
    43.2000        58
    43.2200        62
    43.2400        74
    43.2600        76
    43.2800        74
    43.3000        66
    43.3200        58
    43.3400        56
    43.3600        44
    43.3800        40
    43.4000        38
    43.4200        54
    43.4400        50
    43.4600        40
    43.4800        48
    43.5000        32
    43.5200        40
    43.5400        26
    43.5600        24
    43.5800        48
    43.6000        38
    43.6200        46
    43.6400        28
    43.6600        34
    43.6800        30
    43.7000        34
    43.7200        44
    43.7400        34
    43.7600        32
    43.7800        40
    43.8000        40
    43.8200        36
    43.8400        34
    43.8600        46
    43.8800        28
    43.9000        28
    43.9200        50
    43.9400        32
    43.9600        32
    43.9800        38
    44.0000        26
    44.0200        42
    44.0400        34
    44.0600        28
    44.0800        28
    44.1000        46
    44.1200        30
    44.1400        36
    44.1600        30
    44.1800        34
    44.2000        32
    44.2200        36
    44.2400        32
    44.2600        38
    44.2800        34
    44.3000        36
    44.3200        40
    44.3400        28
    44.3600        36
    44.3800        34
    44.4000        44
    44.4200        46
    44.4400        52
    44.4600        32
    44.4800        30
    44.5000        38
    44.5200        36
    44.5400        48
    44.5600        58
    44.5800        62
    44.6000        54
    44.6200        66
    44.6400        82
    44.6600        72
    44.6800        62
    44.7000        58
    44.7200        70
    44.7400        76
    44.7600        62
    44.7800        82
    44.8000        78
    44.8200        62
    44.8400        74
    44.8600        74
    44.8800        68
    44.9000        78
    44.9200        70
    44.9400        56
    44.9600        68
    44.9800        58
    45.0000        80
    45.0200        58
    45.0400        80
    45.0600        64
    45.0800        40
    45.1000        56
    45.1200        44
    45.1400        54
    45.1600        54
    45.1800        82
    45.2000        78
    45.2200        48
    45.2400        64
    45.2600        68
    45.2800        56
    45.3000        60
    45.3200        58
    45.3400        64
    45.3600        94
    45.3800        84
    45.4000        84
    45.4200        88
    45.4400        92
    45.4600       100
    45.4800       116
    45.5000       116
    45.5200       138
    45.5400       102
    45.5600       102
    45.5800       106
    45.6000        84
    45.6200        64
    45.6400        80
    45.6600        86
    45.6800        74
    45.7000        82
    45.7200        70
    45.7400        38
    45.7600        52
    45.7800        38
    45.8000        50
    45.8200        48
    45.8400        56
    45.8600        42
    45.8800        60
    45.9000        52
    45.9200        36
    45.9400        52
    45.9600        52
    45.9800        58
    46.0000        50
    46.0200        66
    46.0400        52
    46.0600        46
    46.0800        52
    46.1000        40
    46.1200        28
    46.1400        52
    46.1600        54
    46.1800        34
    46.2000        44
    46.2200        52
    46.2400        52
    46.2600        46
    46.2800        46
    46.3000        52
    46.3200        46
    46.3400        76
    46.3600        68
    46.3800        68
    46.4000        52
    46.4200        56
    46.4400        66
    46.4600        60
    46.4800        48
    46.5000        38
    46.5200        50
    46.5400        34
    46.5600        52
    46.5800        44
    46.6000        38
    46.6200        48
    46.6400        36
    46.6600        58
    46.6800        34
    46.7000        62
    46.7200        50
    46.7400        56
    46.7600        54
    46.7800        40
    46.8000        50
    46.8200        56
    46.8400        40
    46.8600        48
    46.8800        56
    46.9000        56
    46.9200        76
    46.9400        80
    46.9600        76
    46.9800       122
    47.0000       112
    47.0200       116
    47.0400       106
    47.0600       104
    47.0800       102
    47.1000        86
    47.1200        72
    47.1400        82
    47.1600        76
    47.1800        74
    47.2000        60
    47.2200        52
    47.2400        38
    47.2600        38
    47.2800        38
    47.3000        42
    47.3200        40
    47.3400        44
    47.3600        52
    47.3800        42
    47.4000        56
    47.4200        36
    47.4400        30
    47.4600        34
    47.4800        42
    47.5000        36
    47.5200        24
    47.5400        64
    47.5600        38
    47.5800        36
    47.6000        38
    47.6200        36
    47.6400        36
    47.6600        38
    47.6800        36
    47.7000        38
    47.7200        40
    47.7400        30
    47.7600        30
    47.7800        28
    47.8000        38
    47.8200        36
    47.8400        46
    47.8600        52
    47.8800        38
    47.9000        50
    47.9200        48
    47.9400        52
    47.9600        46
    47.9800        44
    48.0000        52
    48.0200        54
    48.0400        46
    48.0600        52
    48.0800        56
    48.1000        62
    48.1200        74
    48.1400       104
    48.1600       102
    48.1800       104
    48.2000       152
    48.2200       164
    48.2400       208
    48.2600       192
    48.2800       176
    48.3000       150
    48.3200       132
    48.3400       128
    48.3600       120
    48.3800       104
    48.4000        78
    48.4200        76
    48.4400        76
    48.4600        46
    48.4800        60
    48.5000        40
    48.5200        50
    48.5400        52
    48.5600        44
    48.5800        38
    48.6000        46
    48.6200        40
    48.6400        38
    48.6600        40
    48.6800        38
    48.7000        38
    48.7200        44
    48.7400        38
    48.7600        32
    48.7800        34
    48.8000        48
    48.8200        38
    48.8400        50
    48.8600        38
    48.8800        56
    48.9000        42
    48.9200        64
    48.9400        76
    48.9600        74
    48.9800        44
    49.0000        54
    49.0200        58
    49.0400        46
    49.0600        78
    49.0800        70
    49.1000        90
    49.1200       112
    49.1400       154
    49.1600       164
    49.1800       176
    49.2000       134
    49.2200       124
    49.2400       128
    49.2600        98
    49.2800       124
    49.3000       114
    49.3200       118
    49.3400       108
    49.3600       114
    49.3800        88
    49.4000        96
    49.4200       118
    49.4400       130
    49.4600       168
    49.4800       230
    49.5000       218
    49.5200       238
    49.5400       220
    49.5600       194
    49.5800       170
    49.6000       152
    49.6200       162
    49.6400       184
    49.6600       130
    49.6800       138
    49.7000       118
    49.7200       100
    49.7400        78
    49.7600        76
    49.7800        58
    49.8000        56
    49.8200        54
    49.8400        56
    49.8600        52
    49.8800        54
    49.9000        64
    49.9200        62
    49.9400        58
    49.9600        60
    49.9800        86
    50.0000        68
    50.0200       116
    50.0400        90
    50.0600        86
    50.0800        66
    50.1000        72
    50.1200        86
    50.1400        80
    50.1600        90
    50.1800        70
    50.2000        90
    50.2200        94
    50.2400        62
    50.2600        76
    50.2800        66
    50.3000        56
    50.3200        50
    50.3400        60
    50.3600        74
    50.3800        70
    50.4000        60
    50.4200        62
    50.4400        46
    50.4600        68
    50.4800        62
    50.5000        84
    50.5200        84
    50.5400       116
    50.5600       142
    50.5800       190
    50.6000       234
    50.6200       242
    50.6400       214
    50.6600       196
    50.6800       178
    50.7000       160
    50.7200       144
    50.7400       150
    50.7600       126
    50.7800       112
    50.8000       116
    50.8200       106
    50.8400        74
    50.8600        72
    50.8800        66
    50.9000        54
    50.9200        62
    50.9400        50
    50.9600        56
    50.9800        52
    51.0000        54
    51.0200        54
    51.0400        58
    51.0600        70
    51.0800        80
    51.1000        86
    51.1200        74
    51.1400        72
    51.1600        86
    51.1800        80
    51.2000        76
    51.2200        74
    51.2400        82
    51.2600        82
    51.2800        80
    51.3000       108
    51.3200       118
    51.3400       144
    51.3600       188
    51.3800       240
    51.4000       280
    51.4200       282
    51.4400       218
    51.4600       194
    51.4800       148
    51.5000       166
    51.5200       152
    51.5400       176
    51.5600       158
    51.5800       120
    51.6000       100
    51.6200        72
    51.6400        58
    51.6600        58
    51.6800        54
    51.7000        58
    51.7200        44
    51.7400        50
    51.7600        62
    51.7800        44
    51.8000        46
    51.8200        42
    51.8400        46
    51.8600        52
    51.8800        66
    51.9000        64
    51.9200        68
    51.9400        90
    51.9600       100
    51.9800        90
    52.0000       100
    52.0200        96
    52.0400        74
    52.0600        66
    52.0800        88
    52.1000        84
    52.1200       104
    52.1400        82
    52.1600        88
    52.1800       108
    52.2000        98
    52.2200        96
    52.2400       102
    52.2600        84
    52.2800        78
    52.3000        74
    52.3200        76
    52.3400        62
    52.3600        68
    52.3800        70
    52.4000        88
    52.4200        72
    52.4400        54
    52.4600        60
    52.4800        74
    52.5000        68
    52.5200        66
    52.5400        60
    52.5600        70
    52.5800        78
    52.6000        80
    52.6200        82
    52.6400        62
    52.6600        74
    52.6800        64
    52.7000        84
    52.7200        82
    52.7400        86
    52.7600        84
    52.7800        62
    52.8000        70
    52.8200        68
    52.8400        74
    52.8600        68
    52.8800        82
    52.9000        64
    52.9200        58
    52.9400        62
    52.9600        78
    52.9800        70
    53.0000        94
    53.0200        82
    53.0400        94
    53.0600        88
    53.0800        76
    53.1000       102
    53.1200        70
    53.1400        64
    53.1600        62
    53.1800        74
    53.2000        98
    53.2200        86
    53.2400        98
    53.2600        76
    53.2800       104
    53.3000        86
    53.3200        98
    53.3400        92
    53.3600       100
    53.3800       116
    53.4000        90
    53.4200        78
    53.4400        72
    53.4600        82
    53.4800        68
    53.5000        86
    53.5200        90
    53.5400        80
    53.5600        72
    53.5800        62
    53.6000        54
    53.6200        38
    53.6400        50
    53.6600        52
    53.6800        36
    53.7000        46
    53.7200        40
    53.7400        26
    53.7600        32
    53.7800        40
    53.8000        46
    53.8200        36
    53.8400        40
    53.8600        30
    53.8800        28
    53.9000        38
    53.9200        28
    53.9400        52
    53.9600        40
    53.9800        40
    54.0000        62
    54.0200        42
    54.0400        44
    54.0600        50
    54.0800        48
    54.1000        70
    54.1200        48
    54.1400        48
    54.1600        58
    54.1800        38
    54.2000        56
    54.2200        46
    54.2400        68
    54.2600        54
    54.2800        80
    54.3000        60
    54.3200        70
    54.3400        74
    54.3600        74
    54.3800        72
    54.4000        72
    54.4200        62
    54.4400        62
    54.4600        38
    54.4800        38
    54.5000        54
    54.5200        48
    54.5400        54
    54.5600        46
    54.5800        42
    54.6000        48
    54.6200        40
    54.6400        44
    54.6600        48
    54.6800        46
    54.7000        46
    54.7200        50
    54.7400        60
    54.7600        40
    54.7800        54
    54.8000        56
    54.8200        56
    54.8400        62
    54.8600        32
    54.8800        30
    54.9000        40
    54.9200        40
    54.9400        34
    54.9600        38
    54.9800        40
    55.0000        56
    55.0200        30
    55.0400        38
    55.0600        36
    55.0800        30
    55.1000        26
    55.1200        30
    55.1400        26
    55.1600        26
    55.1800        26
    55.2000        28
    55.2200        34
    55.2400        34
    55.2600        42
    55.2800        34
    55.3000        40
    55.3200        40
    55.3400        42
    55.3600        62
    55.3800        56
    55.4000        58
    55.4200        60
    55.4400        58
    55.4600        76
    55.4800        62
    55.5000        46
    55.5200        48
    55.5400        50
    55.5600        48
    55.5800        56
    55.6000        56
    55.6200        34
    55.6400        30
    55.6600        40
    55.6800        28
    55.7000        38
    55.7200        36
    55.7400        40
    55.7600        32
    55.7800        42
    55.8000        36
    55.8200        32
    55.8400        40
    55.8600        32
    55.8800        30
    55.9000        40
    55.9200        22
    55.9400        30
    55.9600        30
    55.9800        32
    56.0000        40
    56.0200        36
    56.0400        38
    56.0600        40
    56.0800        54
    56.1000        38
    56.1200        28
    56.1400        42
    56.1600        52
    56.1800        52
    56.2000        46
    56.2200        50
    56.2400        54
    56.2600        52
    56.2800        68
    56.3000        48
    56.3200        60
    56.3400        46
    56.3600        60
    56.3800        48
    56.4000        38
    56.4200        60
    56.4400        44
    56.4600        48
    56.4800        44
    56.5000        46
    56.5200        46
    56.5400        32
    56.5600        42
    56.5800        38
    56.6000        44
    56.6200        32
    56.6400        34
    56.6600        36
    56.6800        42
    56.7000        34
    56.7200        52
    56.7400        42
    56.7600        30
    56.7800        54
    56.8000        38
    56.8200        36
    56.8400        46
    56.8600        40
    56.8800        50
    56.9000        60
    56.9200        58
    56.9400        66
    56.9600        70
    56.9800        86
    57.0000        60
    57.0200        54
    57.0400        54
    57.0600        52
    57.0800        58
    57.1000        62
    57.1200        78
    57.1400        60
    57.1600        52
    57.1800        66
    57.2000        60
    57.2200        72
    57.2400        88
    57.2600        88
    57.2800        82
    57.3000        58
    57.3200        62
    57.3400        60
    57.3600        58
    57.3800        70
    57.4000        66
    57.4200        78
    57.4400        80
    57.4600        78
    57.4800        54
    57.5000        40
    57.5200        54
    57.5400        44
    57.5600        42
    57.5800        36
    57.6000        36
    57.6200        38
    57.6400        28
    57.6600        40
    57.6800        42
    57.7000        42
    57.7200        42
    57.7400        54
    57.7600        48
    57.7800        50
    57.8000        56
    57.8200        52
    57.8400        44
    57.8600        52
    57.8800        50
    57.9000        52
    57.9200        60
    57.9400        66
    57.9600        62
    57.9800        70
    58.0000        64
    58.0200        70
    58.0400        70
    58.0600        72
    58.0800        58
    58.1000        58
    58.1200        62
    58.1400        46
    58.1600        58
    58.1800        60
    58.2000        46
    58.2200        44
    58.2400        52
    58.2600        42
    58.2800        52
    58.3000        52
    58.3200        48
    58.3400        32
    58.3600        38
    58.3800        40
    58.4000        38
    58.4200        36
    58.4400        44
    58.4600        44
    58.4800        48
    58.5000        40
    58.5200        54
    58.5400        72
    58.5600        74
    58.5800        82
    58.6000       124
    58.6200       130
    58.6400       148
    58.6600        90
    58.6800        58
    58.7000        56
    58.7200        66
    58.7400        76
    58.7600        88
    58.7800        88
    58.8000       108
    58.8200        84
    58.8400        54
    58.8600        50
    58.8800        50
    58.9000        56
    58.9200        48
    58.9400        60
    58.9600        48
    58.9800        54
    59.0000        54
    59.0200        52
    59.0400        58
    59.0600        52
    59.0800        56
    59.1000        56
    59.1200        60
    59.1400        42
    59.1600        48
    59.1800        34
    59.2000        36
    59.2200        38
    59.2400        30
    59.2600        44
    59.2800        42
    59.3000        42
    59.3200        40
    59.3400        32
    59.3600        32
    59.3800        42
    59.4000        46
    59.4200        44
    59.4400        44
    59.4600        42
    59.4800        38
    59.5000        46
    59.5200        34
    59.5400        40
    59.5600        38
    59.5800        42
    59.6000        44
    59.6200        38
    59.6400        56
    59.6600        60
    59.6800        48
    59.7000        54
    59.7200        54
    59.7400        56
    59.7600        52
    59.7800        72
    59.8000        72
    59.8200        88
    59.8400        68
    59.8600        94
    59.8800        88
    59.9000        96
    59.9200        94
    59.9400        98
    59.9600        80
    59.9800        80
    60.0000        62
    60.0200        56
    60.0400        74
    60.0600        52
    60.0800        56
    60.1000        58
    60.1200        68
    60.1400        48
    60.1600        36
    60.1800        50
    60.2000        32
    60.2200        34
    60.2400        46
    60.2600        34
    60.2800        42
    60.3000        42
    60.3200        38
    60.3400        44
    60.3600        32
    60.3800        34
    60.4000        34
    60.4200        52
    60.4400        34
    60.4600        44
    60.4800        34
    60.5000        34
    60.5200        38
    60.5400        38
    60.5600        40
    60.5800        40
    60.6000        48
    60.6200        42
    60.6400        34
    60.6600        42
    60.6800        36
    60.7000        36
    60.7200        42
    60.7400        54
    60.7600        60
    60.7800        66
    60.8000        68
    60.8200        60
    60.8400        60
    60.8600        44
    60.8800        48
    60.9000        58
    60.9200        64
    60.9400        62
    60.9600        80
    60.9800        82
    61.0000        78
    61.0200        72
    61.0400        86
    61.0600        76
    61.0800        68
    61.1000        80
    61.1200        58
    61.1400        68
    61.1600        58
    61.1800        40
    61.2000        58
    61.2200        46
    61.2400        44
    61.2600        44
    61.2800        52
    61.3000        42
    61.3200        36
    61.3400        30
    61.3600        44
    61.3800        42
    61.4000        24
    61.4200        30
    61.4400        56
    61.4600        38
    61.4800        58
    61.5000        40
    61.5200        46
    61.5400        32
    61.5600        38
    61.5800        32
    61.6000        28
    61.6200        34
    61.6400        42
    61.6600        42
    61.6800        46
    61.7000        46
    61.7200        52
    61.7400        48
    61.7600        38
    61.7800        34
    61.8000        34
    61.8200        36
    61.8400        66
    61.8600        54
    61.8800        82
    61.9000        72
    61.9200        88
    61.9400        82
    61.9600        90
    61.9800       104
    62.0000       130
    62.0200       168
    62.0400       128
    62.0600       138
    62.0800       112
    62.1000       102
    62.1200        96
    62.1400        98
    62.1600        94
    62.1800       120
    62.2000       114
    62.2200        94
    62.2400        94
    62.2600        72
    62.2800        66
    62.3000        60
    62.3200        60
    62.3400        62
    62.3600        56
    62.3800        68
    62.4000        42
    62.4200        78
    62.4400       102
    62.4600       106
    62.4800        78
    62.5000        94
    62.5200        90
    62.5400        90
    62.5600        98
    62.5800        90
    62.6000       100
    62.6200        94
    62.6400        78
    62.6600        80
    62.6800        80
    62.7000        86
    62.7200        66
    62.7400        92
    62.7600        70
    62.7800        86
    62.8000       104
    62.8200        74
    62.8400        82
    62.8600        68
    62.8800        54
    62.9000        48
    62.9200        56
    62.9400        72
    62.9600        66
    62.9800        74
    63.0000        76
    63.0200        62
    63.0400        64
    63.0600        50
    63.0800        48
    63.1000        54
    63.1200        66
    63.1400        50
    63.1600        74
    63.1800        80
    63.2000        84
    63.2200        74
    63.2400        68
    63.2600        62
    63.2800        46
    63.3000        50
    63.3200        48
    63.3400        56
    63.3600        54
    63.3800        48
    63.4000        48
    63.4200        56
    63.4400        56
    63.4600        52
    63.4800        46
    63.5000        44
    63.5200        46
    63.5400        44
    63.5600        40
    63.5800        44
    63.6000        40
    63.6200        40
    63.6400        52
    63.6600        56
    63.6800        62
    63.7000        74
    63.7200        92
    63.7400        96
    63.7600       130
    63.7800        86
    63.8000        82
    63.8200        80
    63.8400        82
    63.8600        66
    63.8800        62
    63.9000        80
    63.9200        80
    63.9400       100
    63.9600        92
    63.9800        80
    64.0000        98
    64.0200        92
    64.0400        82
    64.0600        82
    64.0800        64
    64.1000        58
    64.1200        54
    64.1400        72
    64.1600        46
    64.1800        54
    64.2000        64
    64.2200        68
    64.2400        68
    64.2600        92
    64.2800        58
    64.3000        78
    64.3200        56
    64.3400        72
    64.3600        60
    64.3800        72
    64.4000        68
    64.4200        44
    64.4400        48
    64.4600        70
    64.4800        60
    64.5000        68
    64.5200        60
    64.5400        50
    64.5600        42
    64.5800        48
    64.6000        46
    64.6200        46
    64.6400        48
    64.6600        46
    64.6800        44
    64.7000        40
    64.7200        46
    64.7400        42
    64.7600        28
    64.7800        36
    64.8000        42
    64.8200        22
    64.8400        44
    64.8600        48
    64.8800        46
    64.9000        42
    64.9200        54
    64.9400        48
    64.9600        48
    64.9800        42
    65.0000        52
