/////////////////////////////////////////////////////////////////////////////////
/// Profile Data Ascii Dump (XRD)                                             ///
/////////////////////////////////////////////////////////////////////////////////

  Group     : Swayze
  Data      : WS738
  File Name : WS738.RAW

# Profile Datafile
          comment             = Clinoptilolite 
          date & time         = 08-03-13 05:50:54 

# Measurement Condition
    X-ray tube
          target              = Cu 
          voltage             = 40.0 (kV)
          current             = 30.0 (mA)
    Slits
          divergence slit     = 2.00000 (deg) 
          scatter slit        = 2.00000 (deg) 
          receiving slit      = 0.15000 (mm)  
    Scanning
          drive axis          = Theta-2Theta 
          scan range          =    4.000 -   65.000 
          scan mode           = Continuous Scan 
          scan speed          =   2.0000 (deg/min) 
          sampling pitch      =   0.0200 (deg) 
          preset time         =   0.60 (sec) 

# Data      [ Total No. = 3051 ]
  <2Theta>   <   I   >
     4.0000       238
     4.0200       220
     4.0400       222
     4.0600       212
     4.0800       240
     4.1000       218
     4.1200       214
     4.1400       208
     4.1600       220
     4.1800       192
     4.2000       244
     4.2200       178
     4.2400       216
     4.2600       200
     4.2800       188
     4.3000       186
     4.3200       182
     4.3400       184
     4.3600       172
     4.3800       208
     4.4000       200
     4.4200       228
     4.4400       200
     4.4600       242
     4.4800       218
     4.5000       174
     4.5200       168
     4.5400       172
     4.5600       172
     4.5800       214
     4.6000       172
     4.6200       198
     4.6400       184
     4.6600       170
     4.6800       168
     4.7000       176
     4.7200       176
     4.7400       200
     4.7600       202
     4.7800       174
     4.8000       178
     4.8200       182
     4.8400       176
     4.8600       182
     4.8800       184
     4.9000       172
     4.9200       184
     4.9400       188
     4.9600       180
     4.9800       170
     5.0000       184
     5.0200       178
     5.0400       178
     5.0600       182
     5.0800       186
     5.1000       218
     5.1200       198
     5.1400       164
     5.1600       216
     5.1800       182
     5.2000       208
     5.2200       164
     5.2400       176
     5.2600       186
     5.2800       158
     5.3000       188
     5.3200       178
     5.3400       162
     5.3600       194
     5.3800       178
     5.4000       166
     5.4200       186
     5.4400       184
     5.4600       188
     5.4800       150
     5.5000       166
     5.5200       172
     5.5400       172
     5.5600       192
     5.5800       190
     5.6000       178
     5.6200       154
     5.6400       172
     5.6600       164
     5.6800       200
     5.7000       180
     5.7200       168
     5.7400       170
     5.7600       188
     5.7800       188
     5.8000       202
     5.8200       186
     5.8400       176
     5.8600       190
     5.8800       188
     5.9000       140
     5.9200       198
     5.9400       188
     5.9600       160
     5.9800       180
     6.0000       180
     6.0200       176
     6.0400       150
     6.0600       168
     6.0800       172
     6.1000       148
     6.1200       180
     6.1400       164
     6.1600       176
     6.1800       180
     6.2000       164
     6.2200       172
     6.2400       166
     6.2600       162
     6.2800       160
     6.3000       170
     6.3200       150
     6.3400       158
     6.3600       150
     6.3800       142
     6.4000       164
     6.4200       130
     6.4400       172
     6.4600       138
     6.4800       154
     6.5000       162
     6.5200       164
     6.5400       142
     6.5600       144
     6.5800       154
     6.6000       152
     6.6200       158
     6.6400       150
     6.6600       144
     6.6800       168
     6.7000       126
     6.7200       140
     6.7400       140
     6.7600       142
     6.7800       156
     6.8000       130
     6.8200       150
     6.8400       124
     6.8600       130
     6.8800       146
     6.9000       140
     6.9200       152
     6.9400       166
     6.9600       140
     6.9800       136
     7.0000       144
     7.0200       146
     7.0400       158
     7.0600       144
     7.0800       144
     7.1000       156
     7.1200       126
     7.1400       154
     7.1600       136
     7.1800       136
     7.2000       128
     7.2200       126
     7.2400       150
     7.2600       132
     7.2800       136
     7.3000       138
     7.3200       132
     7.3400       150
     7.3600       160
     7.3800       132
     7.4000       158
     7.4200       136
     7.4400       156
     7.4600       130
     7.4800       130
     7.5000       136
     7.5200       142
     7.5400       150
     7.5600       126
     7.5800       114
     7.6000       130
     7.6200       134
     7.6400       120
     7.6600       122
     7.6800       110
     7.7000       120
     7.7200       162
     7.7400       136
     7.7600       118
     7.7800       122
     7.8000       140
     7.8200       120
     7.8400       140
     7.8600       126
     7.8800       132
     7.9000       132
     7.9200       124
     7.9400       120
     7.9600       124
     7.9800       122
     8.0000       128
     8.0200       116
     8.0400       136
     8.0600       146
     8.0800       148
     8.1000       132
     8.1200       132
     8.1400       122
     8.1600       142
     8.1800       114
     8.2000       132
     8.2200       158
     8.2400       140
     8.2600       102
     8.2800       146
     8.3000       112
     8.3200       148
     8.3400       124
     8.3600       120
     8.3800       144
     8.4000       124
     8.4200       122
     8.4400       144
     8.4600       132
     8.4800       142
     8.5000       142
     8.5200       142
     8.5400       138
     8.5600       138
     8.5800       136
     8.6000       116
     8.6200       140
     8.6400       142
     8.6600       176
     8.6800       124
     8.7000       144
     8.7200       144
     8.7400       146
     8.7600       158
     8.7800       148
     8.8000       142
     8.8200       134
     8.8400       154
     8.8600       104
     8.8800       112
     8.9000       122
     8.9200       148
     8.9400       124
     8.9600       152
     8.9800       140
     9.0000       144
     9.0200       148
     9.0400       122
     9.0600       150
     9.0800       146
     9.1000       124
     9.1200       150
     9.1400       156
     9.1600       140
     9.1800       152
     9.2000       156
     9.2200       144
     9.2400       152
     9.2600       148
     9.2800       154
     9.3000       154
     9.3200       174
     9.3400       130
     9.3600       176
     9.3800       172
     9.4000       188
     9.4200       200
     9.4400       198
     9.4600       212
     9.4800       238
     9.5000       240
     9.5200       246
     9.5400       256
     9.5600       274
     9.5800       298
     9.6000       290
     9.6200       326
     9.6400       334
     9.6600       384
     9.6800       398
     9.7000       430
     9.7200       492
     9.7400       536
     9.7600       606
     9.7800       642
     9.8000       718
     9.8200       684
     9.8400       690
     9.8600       542
     9.8800       442
     9.9000       346
     9.9200       288
     9.9400       232
     9.9600       180
     9.9800       176
    10.0000       146
    10.0200       136
    10.0400       132
    10.0600       140
    10.0800       132
    10.1000       128
    10.1200       152
    10.1400       128
    10.1600       126
    10.1800       108
    10.2000       126
    10.2200       114
    10.2400       122
    10.2600       108
    10.2800       106
    10.3000       114
    10.3200       102
    10.3400       124
    10.3600       118
    10.3800        98
    10.4000       108
    10.4200       118
    10.4400       104
    10.4600       126
    10.4800       126
    10.5000       116
    10.5200       114
    10.5400       134
    10.5600       118
    10.5800       124
    10.6000       108
    10.6200       112
    10.6400       142
    10.6600       144
    10.6800       142
    10.7000       154
    10.7200       144
    10.7400       144
    10.7600       156
    10.7800       152
    10.8000       148
    10.8200       164
    10.8400       180
    10.8600       158
    10.8800       184
    10.9000       208
    10.9200       192
    10.9400       208
    10.9600       238
    10.9800       246
    11.0000       282
    11.0200       346
    11.0400       380
    11.0600       422
    11.0800       452
    11.1000       454
    11.1200       452
    11.1400       394
    11.1600       310
    11.1800       264
    11.2000       184
    11.2200       160
    11.2400       124
    11.2600       128
    11.2800       138
    11.3000       110
    11.3200       124
    11.3400       102
    11.3600        98
    11.3800       102
    11.4000       110
    11.4200        92
    11.4400       126
    11.4600        94
    11.4800       106
    11.5000        90
    11.5200       110
    11.5400        86
    11.5600       104
    11.5800       104
    11.6000        96
    11.6200       102
    11.6400       110
    11.6600       108
    11.6800        98
    11.7000       100
    11.7200       100
    11.7400        92
    11.7600        78
    11.7800        88
    11.8000       106
    11.8200        80
    11.8400        92
    11.8600        68
    11.8800        94
    11.9000        64
    11.9200        94
    11.9400        90
    11.9600        84
    11.9800        90
    12.0000        76
    12.0200        90
    12.0400        74
    12.0600        98
    12.0800        96
    12.1000       106
    12.1200       106
    12.1400        98
    12.1600        98
    12.1800       102
    12.2000        92
    12.2200       102
    12.2400       116
    12.2600        88
    12.2800        88
    12.3000        78
    12.3200        76
    12.3400        80
    12.3600        86
    12.3800        96
    12.4000        86
    12.4200        92
    12.4400       106
    12.4600        94
    12.4800        86
    12.5000        86
    12.5200        76
    12.5400        94
    12.5600       102
    12.5800        98
    12.6000        92
    12.6200        94
    12.6400       120
    12.6600       110
    12.6800       104
    12.7000       112
    12.7200       116
    12.7400       122
    12.7600       108
    12.7800       112
    12.8000       132
    12.8200       138
    12.8400       146
    12.8600       162
    12.8800       184
    12.9000       164
    12.9200       178
    12.9400       178
    12.9600       154
    12.9800       178
    13.0000       158
    13.0200       152
    13.0400       120
    13.0600       152
    13.0800       128
    13.1000       104
    13.1200       106
    13.1400       110
    13.1600       118
    13.1800       104
    13.2000       146
    13.2200       110
    13.2400       112
    13.2600       108
    13.2800       112
    13.3000       116
    13.3200       112
    13.3400        80
    13.3600        72
    13.3800        84
    13.4000        92
    13.4200        74
    13.4400        82
    13.4600        72
    13.4800        76
    13.5000        84
    13.5200        74
    13.5400        86
    13.5600        78
    13.5800        70
    13.6000        76
    13.6200        88
    13.6400        94
    13.6600        76
    13.6800        78
    13.7000        66
    13.7200        74
    13.7400        80
    13.7600        78
    13.7800        78
    13.8000        88
    13.8200        94
    13.8400        84
    13.8600        82
    13.8800        78
    13.9000        66
    13.9200        78
    13.9400        72
    13.9600        74
    13.9800        76
    14.0000        82
    14.0200        74
    14.0400        86
    14.0600        88
    14.0800        66
    14.1000        62
    14.1200        86
    14.1400        56
    14.1600        72
    14.1800        86
    14.2000        72
    14.2200        76
    14.2400        72
    14.2600        76
    14.2800        74
    14.3000        68
    14.3200        88
    14.3400        72
    14.3600        84
    14.3800        66
    14.4000        78
    14.4200        72
    14.4400        74
    14.4600        76
    14.4800        70
    14.5000        80
    14.5200        80
    14.5400        72
    14.5600        82
    14.5800        94
    14.6000        78
    14.6200        76
    14.6400       100
    14.6600        88
    14.6800       102
    14.7000       100
    14.7200       108
    14.7400        82
    14.7600       100
    14.7800       116
    14.8000       124
    14.8200       136
    14.8400       144
    14.8600       140
    14.8800       162
    14.9000       144
    14.9200       130
    14.9400       132
    14.9600        92
    14.9800        96
    15.0000        88
    15.0200        80
    15.0400        68
    15.0600        78
    15.0800        68
    15.1000        84
    15.1200        72
    15.1400        82
    15.1600        66
    15.1800        60
    15.2000        72
    15.2200        72
    15.2400        72
    15.2600        74
    15.2800        84
    15.3000        74
    15.3200        62
    15.3400        76
    15.3600        88
    15.3800        72
    15.4000        88
    15.4200        72
    15.4400        88
    15.4600        80
    15.4800        54
    15.5000        62
    15.5200        74
    15.5400        84
    15.5600        64
    15.5800        64
    15.6000        74
    15.6200        82
    15.6400        66
    15.6600        94
    15.6800        70
    15.7000        76
    15.7200        70
    15.7400        72
    15.7600        88
    15.7800        82
    15.8000       100
    15.8200        72
    15.8400       112
    15.8600        78
    15.8800        86
    15.9000        68
    15.9200        76
    15.9400        78
    15.9600        74
    15.9800        76
    16.0000        70
    16.0200        78
    16.0400        58
    16.0600        84
    16.0800        70
    16.1000        74
    16.1200        54
    16.1400        56
    16.1600        74
    16.1800        80
    16.2000        70
    16.2200        78
    16.2400        66
    16.2600        72
    16.2800        78
    16.3000        74
    16.3200        76
    16.3400        66
    16.3600        82
    16.3800        70
    16.4000        92
    16.4200        78
    16.4400        84
    16.4600        80
    16.4800        86
    16.5000        82
    16.5200        72
    16.5400        92
    16.5600        88
    16.5800       108
    16.6000        84
    16.6200       110
    16.6400        92
    16.6600       104
    16.6800        98
    16.7000       112
    16.7200       118
    16.7400       150
    16.7600       120
    16.7800       150
    16.8000       160
    16.8200       172
    16.8400       190
    16.8600       160
    16.8800       180
    16.9000       134
    16.9200       116
    16.9400       130
    16.9600       126
    16.9800       142
    17.0000       140
    17.0200       140
    17.0400       134
    17.0600       162
    17.0800       138
    17.1000       164
    17.1200       164
    17.1400       216
    17.1600       258
    17.1800       252
    17.2000       328
    17.2200       316
    17.2400       384
    17.2600       372
    17.2800       356
    17.3000       250
    17.3200       266
    17.3400       190
    17.3600       186
    17.3800       138
    17.4000       128
    17.4200       118
    17.4400       118
    17.4600       124
    17.4800       130
    17.5000       128
    17.5200        98
    17.5400        96
    17.5600       106
    17.5800        68
    17.6000        94
    17.6200        82
    17.6400        80
    17.6600        74
    17.6800        84
    17.7000        84
    17.7200        58
    17.7400        68
    17.7600        62
    17.7800        80
    17.8000        66
    17.8200        66
    17.8400        78
    17.8600        70
    17.8800        84
    17.9000        68
    17.9200        66
    17.9400        88
    17.9600        68
    17.9800        56
    18.0000        70
    18.0200        68
    18.0400        78
    18.0600        68
    18.0800        90
    18.1000        72
    18.1200        88
    18.1400        74
    18.1600        80
    18.1800        76
    18.2000        70
    18.2200        48
    18.2400        64
    18.2600        60
    18.2800        78
    18.3000        82
    18.3200        70
    18.3400        78
    18.3600        68
    18.3800        72
    18.4000        78
    18.4200        66
    18.4400        86
    18.4600        66
    18.4800        58
    18.5000        76
    18.5200        82
    18.5400        76
    18.5600        70
    18.5800        76
    18.6000        84
    18.6200        66
    18.6400        68
    18.6600       106
    18.6800        82
    18.7000        92
    18.7200        88
    18.7400        76
    18.7600       126
    18.7800        96
    18.8000       100
    18.8200       122
    18.8400       102
    18.8600       138
    18.8800       130
    18.9000       162
    18.9200       168
    18.9400       184
    18.9600       222
    18.9800       204
    19.0000       248
    19.0200       232
    19.0400       238
    19.0600       192
    19.0800       182
    19.1000       176
    19.1200       172
    19.1400       142
    19.1600       100
    19.1800        86
    19.2000       108
    19.2200        98
    19.2400       102
    19.2600        76
    19.2800        94
    19.3000       104
    19.3200        76
    19.3400        78
    19.3600        94
    19.3800       106
    19.4000        84
    19.4200       104
    19.4400        90
    19.4600        90
    19.4800        90
    19.5000        92
    19.5200        80
    19.5400        98
    19.5600        88
    19.5800       110
    19.6000        98
    19.6200        96
    19.6400       110
    19.6600        82
    19.6800       122
    19.7000        98
    19.7200       102
    19.7400        94
    19.7600        94
    19.7800        94
    19.8000       118
    19.8200        90
    19.8400        98
    19.8600       102
    19.8800        98
    19.9000        98
    19.9200        90
    19.9400        94
    19.9600       102
    19.9800        88
    20.0000       106
    20.0200       114
    20.0400       116
    20.0600       102
    20.0800        96
    20.1000       110
    20.1200       116
    20.1400       104
    20.1600       116
    20.1800       116
    20.2000       164
    20.2200       120
    20.2400       154
    20.2600       158
    20.2800       184
    20.3000       190
    20.3200       192
    20.3400       162
    20.3600       184
    20.3800       178
    20.4000       158
    20.4200       150
    20.4400       120
    20.4600       144
    20.4800       106
    20.5000       138
    20.5200       132
    20.5400       124
    20.5600       140
    20.5800       106
    20.6000       110
    20.6200       120
    20.6400        94
    20.6600       136
    20.6800       116
    20.7000       112
    20.7200       110
    20.7400       108
    20.7600       114
    20.7800        98
    20.8000       118
    20.8200       142
    20.8400       114
    20.8600       134
    20.8800       106
    20.9000       148
    20.9200       128
    20.9400       118
    20.9600       154
    20.9800       118
    21.0000       128
    21.0200       132
    21.0400       134
    21.0600       136
    21.0800       124
    21.1000       122
    21.1200       130
    21.1400       140
    21.1600       154
    21.1800       152
    21.2000       164
    21.2200       148
    21.2400       148
    21.2600       148
    21.2800       134
    21.3000       162
    21.3200       170
    21.3400       146
    21.3600       174
    21.3800       196
    21.4000       194
    21.4200       176
    21.4400       218
    21.4600       194
    21.4800       178
    21.5000       198
    21.5200       210
    21.5400       242
    21.5600       234
    21.5800       238
    21.6000       260
    21.6200       248
    21.6400       214
    21.6600       230
    21.6800       216
    21.7000       232
    21.7200       258
    21.7400       238
    21.7600       256
    21.7800       220
    21.8000       216
    21.8200       224
    21.8400       236
    21.8600       224
    21.8800       222
    21.9000       222
    21.9200       238
    21.9400       258
    21.9600       246
    21.9800       276
    22.0000       216
    22.0200       246
    22.0400       332
    22.0600       320
    22.0800       360
    22.1000       376
    22.1200       402
    22.1400       462
    22.1600       538
    22.1800       616
    22.2000       694
    22.2200       716
    22.2400       798
    22.2600       892
    22.2800       980
    22.3000      1020
    22.3200      1060
    22.3400       982
    22.3600       994
    22.3800      1016
    22.4000       960
    22.4200       880
    22.4400       846
    22.4600       734
    22.4800       644
    22.5000       532
    22.5200       492
    22.5400       430
    22.5600       456
    22.5800       454
    22.6000       466
    22.6200       462
    22.6400       498
    22.6600       520
    22.6800       492
    22.7000       502
    22.7200       470
    22.7400       468
    22.7600       430
    22.7800       376
    22.8000       344
    22.8200       308
    22.8400       252
    22.8600       250
    22.8800       228
    22.9000       218
    22.9200       194
    22.9400       182
    22.9600       166
    22.9800       156
    23.0000       156
    23.0200       154
    23.0400       126
    23.0600       146
    23.0800       180
    23.1000       150
    23.1200       166
    23.1400       140
    23.1600       136
    23.1800       114
    23.2000       110
    23.2200       100
    23.2400       114
    23.2600        98
    23.2800       114
    23.3000       116
    23.3200        96
    23.3400       102
    23.3600       102
    23.3800        94
    23.4000        76
    23.4200        90
    23.4400       104
    23.4600        78
    23.4800        94
    23.5000        90
    23.5200        94
    23.5400       102
    23.5600        92
    23.5800        80
    23.6000       110
    23.6200        96
    23.6400       112
    23.6600       114
    23.6800       104
    23.7000       136
    23.7200       110
    23.7400       112
    23.7600       136
    23.7800       140
    23.8000       140
    23.8200       150
    23.8400       150
    23.8600       136
    23.8800       172
    23.9000       168
    23.9200       148
    23.9400       162
    23.9600       166
    23.9800       128
    24.0000       118
    24.0200       118
    24.0400       120
    24.0600       106
    24.0800       104
    24.1000        90
    24.1200       106
    24.1400        96
    24.1600       102
    24.1800        84
    24.2000        86
    24.2200        92
    24.2400        94
    24.2600        84
    24.2800       106
    24.3000        80
    24.3200       102
    24.3400        98
    24.3600        90
    24.3800       102
    24.4000        84
    24.4200        76
    24.4400        64
    24.4600        74
    24.4800        96
    24.5000        86
    24.5200        80
    24.5400        82
    24.5600        86
    24.5800        92
    24.6000        84
    24.6200        82
    24.6400        84
    24.6600        86
    24.6800        84
    24.7000        88
    24.7200        78
    24.7400        86
    24.7600       110
    24.7800       110
    24.8000       134
    24.8200       134
    24.8400       140
    24.8600       140
    24.8800       178
    24.9000       198
    24.9200       192
    24.9400       198
    24.9600       250
    24.9800       200
    25.0000       222
    25.0200       202
    25.0400       192
    25.0600       178
    25.0800       150
    25.1000       132
    25.1200       112
    25.1400       132
    25.1600       106
    25.1800       102
    25.2000       118
    25.2200       130
    25.2400       100
    25.2600        88
    25.2800        98
    25.3000       114
    25.3200        88
    25.3400       116
    25.3600       116
    25.3800        82
    25.4000        94
    25.4200       114
    25.4400       118
    25.4600        98
    25.4800       122
    25.5000       124
    25.5200       110
    25.5400       116
    25.5600       132
    25.5800       148
    25.6000       168
    25.6200       138
    25.6400       156
    25.6600       156
    25.6800       138
    25.7000       170
    25.7200       172
    25.7400       178
    25.7600       164
    25.7800       170
    25.8000       192
    25.8200       218
    25.8400       266
    25.8600       312
    25.8800       344
    25.9000       354
    25.9200       414
    25.9400       504
    25.9600       430
    25.9800       440
    26.0000       390
    26.0200       380
    26.0400       300
    26.0600       314
    26.0800       266
    26.1000       264
    26.1200       252
    26.1400       292
    26.1600       272
    26.1800       318
    26.2000       268
    26.2200       282
    26.2400       274
    26.2600       258
    26.2800       214
    26.3000       186
    26.3200       174
    26.3400       148
    26.3600       134
    26.3800       100
    26.4000       102
    26.4200       112
    26.4400       136
    26.4600       124
    26.4800       102
    26.5000        82
    26.5200       118
    26.5400       108
    26.5600       138
    26.5800       146
    26.6000       174
    26.6200       192
    26.6400       188
    26.6600       230
    26.6800       200
    26.7000       248
    26.7200       258
    26.7400       238
    26.7600       250
    26.7800       228
    26.8000       170
    26.8200       168
    26.8400       148
    26.8600       128
    26.8800       126
    26.9000       114
    26.9200       102
    26.9400       102
    26.9600        78
    26.9800        84
    27.0000        92
    27.0200        66
    27.0400       100
    27.0600        84
    27.0800        66
    27.1000        88
    27.1200        74
    27.1400        66
    27.1600        84
    27.1800        80
    27.2000        80
    27.2200        80
    27.2400        82
    27.2600        76
    27.2800        78
    27.3000        68
    27.3200        78
    27.3400        92
    27.3600        84
    27.3800        72
    27.4000        70
    27.4200        70
    27.4400        96
    27.4600        96
    27.4800        74
    27.5000        76
    27.5200        76
    27.5400        68
    27.5600        78
    27.5800        82
    27.6000        76
    27.6200        84
    27.6400       112
    27.6600        98
    27.6800        94
    27.7000        80
    27.7200        98
    27.7400        98
    27.7600       108
    27.7800       104
    27.8000       124
    27.8200       128
    27.8400       120
    27.8600       132
    27.8800       152
    27.9000       182
    27.9200       196
    27.9400       220
    27.9600       246
    27.9800       258
    28.0000       344
    28.0200       328
    28.0400       402
    28.0600       384
    28.0800       404
    28.1000       386
    28.1200       382
    28.1400       330
    28.1600       342
    28.1800       270
    28.2000       222
    28.2200       226
    28.2400       178
    28.2600       166
    28.2800       166
    28.3000       128
    28.3200       168
    28.3400       132
    28.3600       134
    28.3800       164
    28.4000       162
    28.4200       188
    28.4400       204
    28.4600       206
    28.4800       236
    28.5000       256
    28.5200       242
    28.5400       276
    28.5600       252
    28.5800       288
    28.6000       212
    28.6200       226
    28.6400       216
    28.6600       188
    28.6800       176
    28.7000       164
    28.7200       146
    28.7400       154
    28.7600       160
    28.7800       168
    28.8000       154
    28.8200       170
    28.8400       172
    28.8600       170
    28.8800       184
    28.9000       218
    28.9200       234
    28.9400       258
    28.9600       264
    28.9800       222
    29.0000       250
    29.0200       238
    29.0400       212
    29.0600       188
    29.0800       156
    29.1000       150
    29.1200       132
    29.1400       112
    29.1600       114
    29.1800       110
    29.2000        94
    29.2200        88
    29.2400        78
    29.2600       106
    29.2800        88
    29.3000       120
    29.3200       102
    29.3400       120
    29.3600       108
    29.3800       114
    29.4000       136
    29.4200       112
    29.4400       174
    29.4600       170
    29.4800       162
    29.5000       166
    29.5200       148
    29.5400       168
    29.5600       162
    29.5800       170
    29.6000       164
    29.6200       166
    29.6400       214
    29.6600       224
    29.6800       226
    29.7000       238
    29.7200       272
    29.7400       254
    29.7600       286
    29.7800       276
    29.8000       326
    29.8200       342
    29.8400       332
    29.8600       386
    29.8800       386
    29.9000       476
    29.9200       448
    29.9400       482
    29.9600       454
    29.9800       494
    30.0000       486
    30.0200       492
    30.0400       482
    30.0600       512
    30.0800       488
    30.1000       456
    30.1200       476
    30.1400       396
    30.1600       412
    30.1800       354
    30.2000       298
    30.2200       280
    30.2400       238
    30.2600       248
    30.2800       218
    30.3000       226
    30.3200       160
    30.3400       156
    30.3600       160
    30.3800       150
    30.4000       136
    30.4200       124
    30.4400       102
    30.4600        98
    30.4800       104
    30.5000        84
    30.5200        72
    30.5400        72
    30.5600        80
    30.5800        66
    30.6000        70
    30.6200        66
    30.6400        78
    30.6600        74
    30.6800        68
    30.7000        82
    30.7200        70
    30.7400        74
    30.7600        74
    30.7800        72
    30.8000        76
    30.8200        78
    30.8400        86
    30.8600        84
    30.8800        98
    30.9000        74
    30.9200        68
    30.9400        66
    30.9600        60
    30.9800        78
    31.0000        86
    31.0200        66
    31.0400        70
    31.0600        86
    31.0800        70
    31.1000        80
    31.1200        80
    31.1400        80
    31.1600        96
    31.1800        82
    31.2000        98
    31.2200        96
    31.2400        92
    31.2600        84
    31.2800        80
    31.3000        82
    31.3200        84
    31.3400        72
    31.3600        72
    31.3800        70
    31.4000        80
    31.4200        68
    31.4400        56
    31.4600        96
    31.4800       102
    31.5000        78
    31.5200        86
    31.5400        78
    31.5600       104
    31.5800        94
    31.6000       100
    31.6200       100
    31.6400       104
    31.6600       106
    31.6800       126
    31.7000       150
    31.7200       138
    31.7400       148
    31.7600       194
    31.7800       220
    31.8000       214
    31.8200       266
    31.8400       316
    31.8600       350
    31.8800       414
    31.9000       410
    31.9200       398
    31.9400       418
    31.9600       406
    31.9800       378
    32.0000       344
    32.0200       306
    32.0400       256
    32.0600       214
    32.0800       164
    32.1000       150
    32.1200       138
    32.1400       130
    32.1600        94
    32.1800        92
    32.2000       102
    32.2200       102
    32.2400        74
    32.2600       102
    32.2800        70
    32.3000        78
    32.3200        78
    32.3400        86
    32.3600        82
    32.3800        80
    32.4000        82
    32.4200        70
    32.4400        90
    32.4600       110
    32.4800       136
    32.5000       122
    32.5200       140
    32.5400       132
    32.5600       134
    32.5800       122
    32.6000       152
    32.6200       174
    32.6400       170
    32.6600       186
    32.6800       184
    32.7000       210
    32.7200       190
    32.7400       208
    32.7600       228
    32.7800       234
    32.8000       212
    32.8200       228
    32.8400       184
    32.8600       162
    32.8800       180
    32.9000       166
    32.9200       166
    32.9400       140
    32.9600       124
    32.9800       132
    33.0000       120
    33.0200       100
    33.0400        86
    33.0600        96
    33.0800        94
    33.1000        74
    33.1200        66
    33.1400        86
    33.1600        78
    33.1800        74
    33.2000        90
    33.2200        78
    33.2400        86
    33.2600       112
    33.2800        84
    33.3000       116
    33.3200       102
    33.3400       106
    33.3600       108
    33.3800       136
    33.4000        96
    33.4200       124
    33.4400       106
    33.4600       126
    33.4800       130
    33.5000        90
    33.5200       108
    33.5400        84
    33.5600        78
    33.5800        88
    33.6000        96
    33.6200        68
    33.6400        60
    33.6600        68
    33.6800        88
    33.7000        60
    33.7200        52
    33.7400        78
    33.7600        48
    33.7800        70
    33.8000        72
    33.8200        70
    33.8400        70
    33.8600        68
    33.8800        76
    33.9000        88
    33.9200        64
    33.9400        62
    33.9600        70
    33.9800        60
    34.0000        82
    34.0200        62
    34.0400        82
    34.0600        64
    34.0800        64
    34.1000        62
    34.1200        66
    34.1400        52
    34.1600        70
    34.1800        72
    34.2000        66
    34.2200        56
    34.2400        68
    34.2600        78
    34.2800        74
    34.3000        78
    34.3200        70
    34.3400        60
    34.3600        76
    34.3800        70
    34.4000        66
    34.4200        68
    34.4400        56
    34.4600        74
    34.4800        66
    34.5000        90
    34.5200        92
    34.5400        80
    34.5600        72
    34.5800        84
    34.6000        88
    34.6200        72
    34.6400        82
    34.6600        74
    34.6800        60
    34.7000        76
    34.7200        98
    34.7400        96
    34.7600        98
    34.7800        94
    34.8000        76
    34.8200        66
    34.8400        88
    34.8600        82
    34.8800       106
    34.9000       106
    34.9200       108
    34.9400       108
    34.9600       110
    34.9800       110
    35.0000       134
    35.0200       124
    35.0400       118
    35.0600       124
    35.0800       110
    35.1000       112
    35.1200        88
    35.1400       110
    35.1600        98
    35.1800       104
    35.2000       106
    35.2200       116
    35.2400       104
    35.2600       120
    35.2800       144
    35.3000       120
    35.3200       134
    35.3400       152
    35.3600       120
    35.3800       146
    35.4000       122
    35.4200       158
    35.4400       132
    35.4600       136
    35.4800       132
    35.5000       128
    35.5200       122
    35.5400       138
    35.5600       106
    35.5800       122
    35.6000       124
    35.6200       136
    35.6400       130
    35.6600       114
    35.6800       114
    35.7000       134
    35.7200       142
    35.7400       124
    35.7600       118
    35.7800       140
    35.8000       132
    35.8200       134
    35.8400       108
    35.8600       108
    35.8800       114
    35.9000       116
    35.9200       110
    35.9400        96
    35.9600        90
    35.9800       112
    36.0000       112
    36.0200       136
    36.0400       130
    36.0600       104
    36.0800       108
    36.1000       102
    36.1200       116
    36.1400       108
    36.1600       104
    36.1800        96
    36.2000        92
    36.2200        98
    36.2400        88
    36.2600        94
    36.2800        86
    36.3000       100
    36.3200       116
    36.3400        80
    36.3600        94
    36.3800       114
    36.4000       110
    36.4200       100
    36.4400       106
    36.4600       114
    36.4800       120
    36.5000       118
    36.5200       126
    36.5400       114
    36.5600       134
    36.5800       136
    36.6000       152
    36.6200       154
    36.6400       162
    36.6600       160
    36.6800       188
    36.7000       176
    36.7200       174
    36.7400       182
    36.7600       206
    36.7800       188
    36.8000       182
    36.8200       194
    36.8400       172
    36.8600       198
    36.8800       204
    36.9000       186
    36.9200       212
    36.9400       180
    36.9600       218
    36.9800       218
    37.0000       184
    37.0200       224
    37.0400       172
    37.0600       164
    37.0800       172
    37.1000       180
    37.1200       178
    37.1400       162
    37.1600       126
    37.1800       132
    37.2000       120
    37.2200        88
    37.2400       106
    37.2600        94
    37.2800       102
    37.3000        92
    37.3200        74
    37.3400        84
    37.3600        82
    37.3800        74
    37.4000        70
    37.4200        58
    37.4400        72
    37.4600        72
    37.4800        86
    37.5000        78
    37.5200        74
    37.5400        78
    37.5600        62
    37.5800        70
    37.6000        72
    37.6200        80
    37.6400        84
    37.6600        88
    37.6800        72
    37.7000        70
    37.7200        96
    37.7400        62
    37.7600        76
    37.7800        74
    37.8000        78
    37.8200        74
    37.8400        66
    37.8600        74
    37.8800        68
    37.9000        78
    37.9200        76
    37.9400        74
    37.9600        96
    37.9800        74
    38.0000        82
    38.0200        74
    38.0400        88
    38.0600        76
    38.0800        76
    38.1000        86
    38.1200        84
    38.1400        90
    38.1600        80
    38.1800        94
    38.2000        90
    38.2200        92
    38.2400        76
    38.2600        72
    38.2800        70
    38.3000        86
    38.3200        76
    38.3400        78
    38.3600        78
    38.3800        66
    38.4000        76
    38.4200        70
    38.4400        82
    38.4600        50
    38.4800        72
    38.5000        78
    38.5200        58
    38.5400        56
    38.5600        72
    38.5800        78
    38.6000        58
    38.6200        72
    38.6400        70
    38.6600        56
    38.6800        70
    38.7000        54
    38.7200        78
    38.7400        64
    38.7600        70
    38.7800        76
    38.8000        64
    38.8200        80
    38.8400        78
    38.8600        64
    38.8800        74
    38.9000        78
    38.9200        90
    38.9400        70
    38.9600        58
    38.9800        78
    39.0000        66
    39.0200        64
    39.0400        74
    39.0600        58
    39.0800        58
    39.1000        60
    39.1200        54
    39.1400        64
    39.1600        62
    39.1800        72
    39.2000        66
    39.2200        52
    39.2400        78
    39.2600        52
    39.2800        64
    39.3000        64
    39.3200        60
    39.3400        62
    39.3600        70
    39.3800        56
    39.4000        66
    39.4200        74
    39.4400        64
    39.4600        68
    39.4800        64
    39.5000        68
    39.5200        66
    39.5400        70
    39.5600        92
    39.5800        76
    39.6000        74
    39.6200        80
    39.6400        64
    39.6600        58
    39.6800        82
    39.7000        58
    39.7200        60
    39.7400        70
    39.7600        68
    39.7800        56
    39.8000        60
    39.8200        80
    39.8400        66
    39.8600        66
    39.8800        54
    39.9000        62
    39.9200        60
    39.9400        46
    39.9600        50
    39.9800        48
    40.0000        76
    40.0200        64
    40.0400        58
    40.0600        32
    40.0800        68
    40.1000        52
    40.1200        62
    40.1400        62
    40.1600        48
    40.1800        60
    40.2000        62
    40.2200        68
    40.2400        60
    40.2600        76
    40.2800        66
    40.3000        76
    40.3200        52
    40.3400        60
    40.3600        74
    40.3800        62
    40.4000        74
    40.4200        50
    40.4400        58
    40.4600        74
    40.4800        54
    40.5000        44
    40.5200        66
    40.5400        54
    40.5600        50
    40.5800        46
    40.6000        72
    40.6200        58
    40.6400        68
    40.6600        68
    40.6800        54
    40.7000        62
    40.7200        62
    40.7400        52
    40.7600        84
    40.7800        66
    40.8000        76
    40.8200        64
    40.8400        78
    40.8600        78
    40.8800        70
    40.9000        70
    40.9200        56
    40.9400        76
    40.9600        66
    40.9800        52
    41.0000        70
    41.0200        88
    41.0400        58
    41.0600        64
    41.0800        70
    41.1000        68
    41.1200        66
    41.1400        68
    41.1600        72
    41.1800        78
    41.2000        64
    41.2200        68
    41.2400        66
    41.2600        76
    41.2800        86
    41.3000        80
    41.3200        76
    41.3400        78
    41.3600        76
    41.3800        82
    41.4000        86
    41.4200        72
    41.4400        76
    41.4600        82
    41.4800        60
    41.5000        66
    41.5200        50
    41.5400        76
    41.5600        66
    41.5800        50
    41.6000        54
    41.6200        72
    41.6400        68
    41.6600        54
    41.6800        46
    41.7000        62
    41.7200        64
    41.7400        54
    41.7600        58
    41.7800        62
    41.8000        80
    41.8200        60
    41.8400        62
    41.8600        66
    41.8800        68
    41.9000        84
    41.9200        56
    41.9400        64
    41.9600        82
    41.9800        74
    42.0000        72
    42.0200        76
    42.0400        70
    42.0600        62
    42.0800        54
    42.1000        60
    42.1200        68
    42.1400        68
    42.1600        68
    42.1800        72
    42.2000        78
    42.2200        70
    42.2400        66
    42.2600        62
    42.2800        56
    42.3000        70
    42.3200        60
    42.3400        82
    42.3600        80
    42.3800        68
    42.4000        78
    42.4200        64
    42.4400        82
    42.4600        74
    42.4800        84
    42.5000        86
    42.5200        88
    42.5400        92
    42.5600        90
    42.5800        88
    42.6000        72
    42.6200        78
    42.6400        84
    42.6600        68
    42.6800        92
    42.7000        68
    42.7200        80
    42.7400        88
    42.7600        68
    42.7800        74
    42.8000        80
    42.8200        76
    42.8400        94
    42.8600        72
    42.8800        76
    42.9000        72
    42.9200        60
    42.9400        66
    42.9600        66
    42.9800        76
    43.0000        64
    43.0200        86
    43.0400        80
    43.0600        74
    43.0800        88
    43.1000        90
    43.1200       108
    43.1400       108
    43.1600       116
    43.1800       100
    43.2000       110
    43.2200       116
    43.2400       104
    43.2600       108
    43.2800        98
    43.3000       104
    43.3200        96
    43.3400        78
    43.3600       108
    43.3800        76
    43.4000        94
    43.4200        72
    43.4400        66
    43.4600        62
    43.4800        78
    43.5000        72
    43.5200        58
    43.5400        74
    43.5600        68
    43.5800        90
    43.6000        86
    43.6200        68
    43.6400        66
    43.6600        66
    43.6800        66
    43.7000        62
    43.7200        70
    43.7400        64
    43.7600        66
    43.7800        58
    43.8000        62
    43.8200        62
    43.8400        88
    43.8600        78
    43.8800        96
    43.9000        86
    43.9200        84
    43.9400        92
    43.9600        72
    43.9800        94
    44.0000        90
    44.0200        78
    44.0400        80
    44.0600        74
    44.0800        80
    44.1000        82
    44.1200        88
    44.1400        94
    44.1600        64
    44.1800        60
    44.2000        64
    44.2200        62
    44.2400        52
    44.2600        72
    44.2800        66
    44.3000        54
    44.3200        76
    44.3400        68
    44.3600        72
    44.3800        64
    44.4000        64
    44.4200        64
    44.4400        70
    44.4600        52
    44.4800        68
    44.5000        76
    44.5200        76
    44.5400        90
    44.5600        74
    44.5800        64
    44.6000        66
    44.6200        64
    44.6400        74
    44.6600        60
    44.6800        70
    44.7000        68
    44.7200        74
    44.7400        82
    44.7600        94
    44.7800        78
    44.8000        94
    44.8200        98
    44.8400       106
    44.8600       102
    44.8800       102
    44.9000       112
    44.9200       126
    44.9400       100
    44.9600       112
    44.9800        98
    45.0000       108
    45.0200        82
    45.0400        94
    45.0600        78
    45.0800        74
    45.1000        68
    45.1200        66
    45.1400        56
    45.1600        70
    45.1800        60
    45.2000        58
    45.2200        64
    45.2400        58
    45.2600        70
    45.2800        58
    45.3000        56
    45.3200        50
    45.3400        52
    45.3600        54
    45.3800        64
    45.4000        52
    45.4200        60
    45.4400        52
    45.4600        46
    45.4800        70
    45.5000        54
    45.5200        58
    45.5400        46
    45.5600        62
    45.5800        48
    45.6000        58
    45.6200        56
    45.6400        74
    45.6600        62
    45.6800        62
    45.7000        68
    45.7200        60
    45.7400        76
    45.7600        72
    45.7800        74
    45.8000        64
    45.8200        68
    45.8400        74
    45.8600        94
    45.8800        68
    45.9000        62
    45.9200        66
    45.9400        62
    45.9600        76
    45.9800        62
    46.0000        74
    46.0200        72
    46.0400        72
    46.0600        64
    46.0800        76
    46.1000        84
    46.1200        82
    46.1400        78
    46.1600        98
    46.1800       102
    46.2000       130
    46.2200       106
    46.2400       110
    46.2600       124
    46.2800       126
    46.3000       112
    46.3200       140
    46.3400       148
    46.3600       118
    46.3800       102
    46.4000       104
    46.4200       112
    46.4400        88
    46.4600        78
    46.4800        76
    46.5000        76
    46.5200        74
    46.5400        80
    46.5600        68
    46.5800        62
    46.6000        82
    46.6200        76
    46.6400        84
    46.6600        90
    46.6800        70
    46.7000        94
    46.7200       100
    46.7400        92
    46.7600        88
    46.7800       112
    46.8000       102
    46.8200        78
    46.8400       102
    46.8600       108
    46.8800        88
    46.9000        92
    46.9200        76
    46.9400        88
    46.9600        72
    46.9800        82
    47.0000        66
    47.0200        66
    47.0400        68
    47.0600        68
    47.0800        56
    47.1000        60
    47.1200        78
    47.1400        70
    47.1600        62
    47.1800        66
    47.2000        54
    47.2200        66
    47.2400        66
    47.2600        58
    47.2800        64
    47.3000        70
    47.3200        66
    47.3400        64
    47.3600        70
    47.3800        58
    47.4000        64
    47.4200        64
    47.4400        62
    47.4600        70
    47.4800        74
    47.5000        58
    47.5200        66
    47.5400        62
    47.5600        64
    47.5800        72
    47.6000        46
    47.6200        60
    47.6400        56
    47.6600        54
    47.6800        56
    47.7000        50
    47.7200        54
    47.7400        52
    47.7600        50
    47.7800        62
    47.8000        66
    47.8200        60
    47.8400        54
    47.8600        62
    47.8800        46
    47.9000        64
    47.9200        58
    47.9400        56
    47.9600        54
    47.9800        40
    48.0000        48
    48.0200        50
    48.0400        66
    48.0600        66
    48.0800        40
    48.1000        40
    48.1200        50
    48.1400        46
    48.1600        58
    48.1800        54
    48.2000        68
    48.2200        40
    48.2400        76
    48.2600        50
    48.2800        48
    48.3000        66
    48.3200        64
    48.3400        60
    48.3600        58
    48.3800        54
    48.4000        68
    48.4200        56
    48.4400        50
    48.4600        50
    48.4800        50
    48.5000        58
    48.5200        50
    48.5400        44
    48.5600        52
    48.5800        52
    48.6000        52
    48.6200        58
    48.6400        70
    48.6600        68
    48.6800        52
    48.7000        48
    48.7200        48
    48.7400        64
    48.7600        66
    48.7800        58
    48.8000        50
    48.8200        68
    48.8400        62
    48.8600        54
    48.8800        60
    48.9000        60
    48.9200        72
    48.9400        58
    48.9600        64
    48.9800        80
    49.0000        66
    49.0200        76
    49.0400        54
    49.0600        92
    49.0800        80
    49.1000        70
    49.1200        82
    49.1400        68
    49.1600        64
    49.1800        54
    49.2000        70
    49.2200        68
    49.2400        62
    49.2600        50
    49.2800        58
    49.3000        46
    49.3200        52
    49.3400        40
    49.3600        48
    49.3800        52
    49.4000        72
    49.4200        44
    49.4400        46
    49.4600        46
    49.4800        72
    49.5000        52
    49.5200        60
    49.5400        60
    49.5600        68
    49.5800        64
    49.6000        52
    49.6200        76
    49.6400        62
    49.6600        86
    49.6800        82
    49.7000        64
    49.7200        60
    49.7400        66
    49.7600        64
    49.7800        68
    49.8000        86
    49.8200        74
    49.8400        80
    49.8600        66
    49.8800        58
    49.9000        88
    49.9200        76
    49.9400        80
    49.9600        86
    49.9800        92
    50.0000        92
    50.0200        76
    50.0400        76
    50.0600        66
    50.0800        66
    50.1000        76
    50.1200        72
    50.1400        72
    50.1600        58
    50.1800        70
    50.2000        60
    50.2200        56
    50.2400        52
    50.2600        68
    50.2800        58
    50.3000        64
    50.3200        62
    50.3400        74
    50.3600        54
    50.3800        50
    50.4000        56
    50.4200        58
    50.4400        56
    50.4600        66
    50.4800        46
    50.5000        56
    50.5200        66
    50.5400        60
    50.5600        50
    50.5800        60
    50.6000        54
    50.6200        60
    50.6400        52
    50.6600        54
    50.6800        76
    50.7000        62
    50.7200        62
    50.7400        48
    50.7600        52
    50.7800        66
    50.8000        62
    50.8200        74
    50.8400        68
    50.8600        76
    50.8800        78
    50.9000        62
    50.9200        52
    50.9400        62
    50.9600        84
    50.9800        76
    51.0000        88
    51.0200        66
    51.0400        80
    51.0600        78
    51.0800        74
    51.1000        80
    51.1200        66
    51.1400        58
    51.1600        74
    51.1800        78
    51.2000        82
    51.2200        98
    51.2400        88
    51.2600        82
    51.2800        84
    51.3000        72
    51.3200        88
    51.3400        98
    51.3600       102
    51.3800       112
    51.4000        78
    51.4200        92
    51.4400        82
    51.4600       102
    51.4800       112
    51.5000       100
    51.5200        92
    51.5400        86
    51.5600       100
    51.5800        92
    51.6000       100
    51.6200       116
    51.6400       100
    51.6600       120
    51.6800       100
    51.7000       128
    51.7200       120
    51.7400       102
    51.7600       116
    51.7800       110
    51.8000        98
    51.8200       112
    51.8400       104
    51.8600       112
    51.8800        90
    51.9000       102
    51.9200        86
    51.9400        76
    51.9600        96
    51.9800        68
    52.0000        84
    52.0200       102
    52.0400        78
    52.0600       102
    52.0800        98
    52.1000        70
    52.1200        80
    52.1400       100
    52.1600        88
    52.1800        96
    52.2000        80
    52.2200        86
    52.2400        78
    52.2600        74
    52.2800        88
    52.3000        74
    52.3200        78
    52.3400        66
    52.3600        70
    52.3800        84
    52.4000        84
    52.4200        76
    52.4400        84
    52.4600        74
    52.4800        72
    52.5000        64
    52.5200        72
    52.5400        84
    52.5600        70
    52.5800        74
    52.6000        80
    52.6200        54
    52.6400        74
    52.6600        66
    52.6800        78
    52.7000        78
    52.7200        78
    52.7400        68
    52.7600        68
    52.7800        74
    52.8000        64
    52.8200        60
    52.8400        70
    52.8600        76
    52.8800        76
    52.9000        86
    52.9200        68
    52.9400        94
    52.9600        68
    52.9800        78
    53.0000        84
    53.0200        80
    53.0400        72
    53.0600       100
    53.0800        98
    53.1000       110
    53.1200        74
    53.1400        86
    53.1600        72
    53.1800        58
    53.2000        86
    53.2200        62
    53.2400        68
    53.2600        76
    53.2800        52
    53.3000        70
    53.3200        58
    53.3400        64
    53.3600        68
    53.3800        62
    53.4000        58
    53.4200        62
    53.4400        58
    53.4600        62
    53.4800        52
    53.5000        48
    53.5200        58
    53.5400        64
    53.5600        74
    53.5800        56
    53.6000        68
    53.6200        84
    53.6400        62
    53.6600        76
    53.6800        74
    53.7000        80
    53.7200        60
    53.7400        68
    53.7600        64
    53.7800        88
    53.8000        62
    53.8200        92
    53.8400        62
    53.8600        76
    53.8800        76
    53.9000        78
    53.9200        88
    53.9400        68
    53.9600        96
    53.9800        82
    54.0000       110
    54.0200       100
    54.0400       108
    54.0600       102
    54.0800       106
    54.1000       102
    54.1200       102
    54.1400       126
    54.1600       116
    54.1800       120
    54.2000       118
    54.2200       114
    54.2400        90
    54.2600       108
    54.2800        94
    54.3000       116
    54.3200        74
    54.3400        92
    54.3600        76
    54.3800        88
    54.4000        82
    54.4200        70
    54.4400        68
    54.4600        80
    54.4800        58
    54.5000        56
    54.5200        52
    54.5400        54
    54.5600        56
    54.5800        60
    54.6000        58
    54.6200        66
    54.6400        50
    54.6600        36
    54.6800        50
    54.7000        54
    54.7200        54
    54.7400        62
    54.7600        46
    54.7800        64
    54.8000        54
    54.8200        62
    54.8400        64
    54.8600        58
    54.8800        54
    54.9000        66
    54.9200        58
    54.9400        66
    54.9600        64
    54.9800        64
    55.0000        76
    55.0200        72
    55.0400        68
    55.0600        70
    55.0800        68
    55.1000        88
    55.1200        84
    55.1400        88
    55.1600        84
    55.1800        88
    55.2000        82
    55.2200        74
    55.2400        84
    55.2600        68
    55.2800        70
    55.3000        62
    55.3200        60
    55.3400        60
    55.3600        62
    55.3800        68
    55.4000        58
    55.4200        56
    55.4400        72
    55.4600        60
    55.4800        70
    55.5000        60
    55.5200        64
    55.5400        84
    55.5600        72
    55.5800        66
    55.6000        70
    55.6200        84
    55.6400        68
    55.6600        88
    55.6800        76
    55.7000        78
    55.7200        64
    55.7400        84
    55.7600        80
    55.7800        58
    55.8000        76
    55.8200        82
    55.8400        82
    55.8600        80
    55.8800        66
    55.9000        60
    55.9200        86
    55.9400        72
    55.9600        76
    55.9800        76
    56.0000        74
    56.0200        60
    56.0400        78
    56.0600        62
    56.0800        70
    56.1000        64
    56.1200        66
    56.1400        66
    56.1600        52
    56.1800        60
    56.2000        66
    56.2200        56
    56.2400        66
    56.2600        80
    56.2800        72
    56.3000        74
    56.3200        78
    56.3400        76
    56.3600        64
    56.3800        64
    56.4000        90
    56.4200        60
    56.4400        82
    56.4600        72
    56.4800        60
    56.5000        80
    56.5200        74
    56.5400        48
    56.5600        60
    56.5800        86
    56.6000        66
    56.6200        58
    56.6400        48
    56.6600        64
    56.6800        74
    56.7000        72
    56.7200        54
    56.7400        74
    56.7600        70
    56.7800        68
    56.8000        60
    56.8200        82
    56.8400        72
    56.8600        88
    56.8800        84
    56.9000        76
    56.9200        92
    56.9400        76
    56.9600        96
    56.9800        86
    57.0000        64
    57.0200        88
    57.0400        72
    57.0600        68
    57.0800        56
    57.1000        72
    57.1200        72
    57.1400        62
    57.1600        56
    57.1800        70
    57.2000        64
    57.2200        64
    57.2400        60
    57.2600        72
    57.2800        64
    57.3000        48
    57.3200        62
    57.3400        42
    57.3600        52
    57.3800        52
    57.4000        56
    57.4200        50
    57.4400        56
    57.4600        48
    57.4800        52
    57.5000        68
    57.5200        80
    57.5400        72
    57.5600        60
    57.5800        72
    57.6000        56
    57.6200        60
    57.6400        66
    57.6600        68
    57.6800        60
    57.7000        68
    57.7200        96
    57.7400        84
    57.7600        94
    57.7800        62
    57.8000        78
    57.8200        96
    57.8400        94
    57.8600        98
    57.8800        86
    57.9000        82
    57.9200        92
    57.9400        72
    57.9600        94
    57.9800        92
    58.0000       104
    58.0200        82
    58.0400        84
    58.0600        90
    58.0800        70
    58.1000        82
    58.1200        78
    58.1400        74
    58.1600        74
    58.1800        64
    58.2000        62
    58.2200        70
    58.2400        78
    58.2600        78
    58.2800        70
    58.3000        74
    58.3200        78
    58.3400        62
    58.3600        76
    58.3800        78
    58.4000        68
    58.4200        54
    58.4400        66
    58.4600        56
    58.4800        60
    58.5000        58
    58.5200        64
    58.5400        50
    58.5600        42
    58.5800        58
    58.6000        48
    58.6200        56
    58.6400        52
    58.6600        62
    58.6800        54
    58.7000        62
    58.7200        46
    58.7400        56
    58.7600        62
    58.7800        58
    58.8000        54
    58.8200        62
    58.8400        56
    58.8600        58
    58.8800        42
    58.9000        68
    58.9200        72
    58.9400        50
    58.9600        48
    58.9800        48
    59.0000        70
    59.0200        64
    59.0400        56
    59.0600        58
    59.0800        52
    59.1000        64
    59.1200        62
    59.1400        76
    59.1600        70
    59.1800        66
    59.2000        70
    59.2200        72
    59.2400        76
    59.2600        54
    59.2800        54
    59.3000        64
    59.3200        72
    59.3400        56
    59.3600        50
    59.3800        62
    59.4000        58
    59.4200        64
    59.4400        54
    59.4600        62
    59.4800        56
    59.5000        68
    59.5200        62
    59.5400        46
    59.5600        52
    59.5800        46
    59.6000        58
    59.6200        50
    59.6400        64
    59.6600        60
    59.6800        44
    59.7000        44
    59.7200        74
    59.7400        80
    59.7600        58
    59.7800        66
    59.8000        60
    59.8200        50
    59.8400        52
    59.8600        48
    59.8800        46
    59.9000        64
    59.9200        68
    59.9400        54
    59.9600        58
    59.9800        46
    60.0000        62
    60.0200        60
    60.0400        68
    60.0600        66
    60.0800        54
    60.1000        72
    60.1200        70
    60.1400        56
    60.1600        54
    60.1800        56
    60.2000        60
    60.2200        58
    60.2400        52
    60.2600        80
    60.2800        72
    60.3000        64
    60.3200        54
    60.3400        62
    60.3600        48
    60.3800        66
    60.4000        62
    60.4200        38
    60.4400        62
    60.4600        60
    60.4800        58
    60.5000        46
    60.5200        62
    60.5400        64
    60.5600        50
    60.5800        66
    60.6000        54
    60.6200        50
    60.6400        62
    60.6600        60
    60.6800        52
    60.7000        74
    60.7200        50
    60.7400        68
    60.7600        58
    60.7800        68
    60.8000        76
    60.8200        58
    60.8400        84
    60.8600        66
    60.8800        64
    60.9000        70
    60.9200        74
    60.9400        70
    60.9600        64
    60.9800        68
    61.0000        68
    61.0200        66
    61.0400        76
    61.0600        76
    61.0800        60
    61.1000        60
    61.1200        68
    61.1400        86
    61.1600        64
    61.1800        62
    61.2000        60
    61.2200        56
    61.2400        62
    61.2600        56
    61.2800        58
    61.3000        42
    61.3200        64
    61.3400        64
    61.3600        58
    61.3800        66
    61.4000        60
    61.4200        58
    61.4400        62
    61.4600        64
    61.4800        66
    61.5000        60
    61.5200        50
    61.5400        62
    61.5600        48
    61.5800        70
    61.6000        62
    61.6200        48
    61.6400        52
    61.6600        62
    61.6800        56
    61.7000        50
    61.7200        56
    61.7400        60
    61.7600        62
    61.7800        56
    61.8000        64
    61.8200        54
    61.8400        72
    61.8600        46
    61.8800        48
    61.9000        58
    61.9200        72
    61.9400        72
    61.9600        70
    61.9800        62
    62.0000        86
    62.0200        74
    62.0400        72
    62.0600        82
    62.0800        62
    62.1000        80
    62.1200        98
    62.1400        78
    62.1600        70
    62.1800        74
    62.2000        80
    62.2200        86
    62.2400        74
    62.2600        82
    62.2800        88
    62.3000        74
    62.3200        82
    62.3400        68
    62.3600        82
    62.3800        76
    62.4000        82
    62.4200        80
    62.4400        94
    62.4600        86
    62.4800        84
    62.5000        66
    62.5200        74
    62.5400        82
    62.5600        76
    62.5800       104
    62.6000        86
    62.6200        88
    62.6400        90
    62.6600        80
    62.6800        76
    62.7000        90
    62.7200        82
    62.7400        70
    62.7600        90
    62.7800        94
    62.8000        92
    62.8200        98
    62.8400        80
    62.8600        74
    62.8800        92
    62.9000        72
    62.9200        78
    62.9400        70
    62.9600        72
    62.9800        70
    63.0000        86
    63.0200        62
    63.0400        56
    63.0600        60
    63.0800        70
    63.1000        70
    63.1200        72
    63.1400        60
    63.1600        60
    63.1800        74
    63.2000        66
    63.2200        62
    63.2400        66
    63.2600        66
    63.2800        64
    63.3000        60
    63.3200        66
    63.3400        62
    63.3600        40
    63.3800        72
    63.4000        82
    63.4200        62
    63.4400        54
    63.4600        68
    63.4800        58
    63.5000        52
    63.5200        52
    63.5400        56
    63.5600        72
    63.5800        52
    63.6000        58
    63.6200        66
    63.6400        56
    63.6600        66
    63.6800        70
    63.7000        58
    63.7200        78
    63.7400        56
    63.7600        70
    63.7800        62
    63.8000        62
    63.8200        56
    63.8400        62
    63.8600        62
    63.8800        80
    63.9000        50
    63.9200        54
    63.9400        82
    63.9600        54
    63.9800        94
    64.0000        84
    64.0200        80
    64.0400        90
    64.0600        70
    64.0800        64
    64.1000        86
    64.1200        86
    64.1400        82
    64.1600        90
    64.1800        96
    64.2000        84
    64.2200        88
    64.2400        84
    64.2600        88
    64.2800        88
    64.3000        86
    64.3200        68
    64.3400        66
    64.3600        72
    64.3800        76
    64.4000        82
    64.4200        64
    64.4400        50
    64.4600        56
    64.4800        66
    64.5000        64
    64.5200        60
    64.5400        66
    64.5600        52
    64.5800        46
    64.6000        80
    64.6200        62
    64.6400        60
    64.6600        70
    64.6800        76
    64.7000        68
    64.7200        74
    64.7400        74
    64.7600        64
    64.7800        86
    64.8000        64
    64.8200        68
    64.8400        92
    64.8600        80
    64.8800        80
    64.9000        84
    64.9200        86
    64.9400        92
    64.9600        78
    64.9800        92
    65.0000        96
