/////////////////////////////////////////////////////////////////////////////////
/// Profile Data Ascii Dump (XRD)                                             ///
/////////////////////////////////////////////////////////////////////////////////

  Group     : Swayze
  Data      : WS749
  File Name : WS749.RAW

# Profile Datafile
          comment             = Stilbite 
          date & time         = 08-03-14 05:53:58 

# Measurement Condition
    X-ray tube
          target              = Cu 
          voltage             = 40.0 (kV)
          current             = 30.0 (mA)
    Slits
          divergence slit     = 2.00000 (deg) 
          scatter slit        = 2.00000 (deg) 
          receiving slit      = 0.15000 (mm)  
    Scanning
          drive axis          = Theta-2Theta 
          scan range          =    4.000 -   65.000 
          scan mode           = Continuous Scan 
          scan speed          =   2.0000 (deg/min) 
          sampling pitch      =   0.0200 (deg) 
          preset time         =   0.60 (sec) 

# Data      [ Total No. = 3051 ]
  <2Theta>   <   I   >
     4.0000       192
     4.0200       192
     4.0400       208
     4.0600       194
     4.0800       186
     4.1000       232
     4.1200       210
     4.1400       186
     4.1600       180
     4.1800       192
     4.2000       170
     4.2200       186
     4.2400       188
     4.2600       178
     4.2800       176
     4.3000       176
     4.3200       174
     4.3400       180
     4.3600       160
     4.3800       188
     4.4000       154
     4.4200       186
     4.4400       194
     4.4600       190
     4.4800       172
     4.5000       176
     4.5200       186
     4.5400       166
     4.5600       174
     4.5800       204
     4.6000       174
     4.6200       170
     4.6400       154
     4.6600       156
     4.6800       190
     4.7000       174
     4.7200       154
     4.7400       172
     4.7600       192
     4.7800       204
     4.8000       142
     4.8200       192
     4.8400       200
     4.8600       164
     4.8800       162
     4.9000       166
     4.9200       166
     4.9400       192
     4.9600       158
     4.9800       172
     5.0000       166
     5.0200       170
     5.0400       180
     5.0600       158
     5.0800       180
     5.1000       200
     5.1200       180
     5.1400       170
     5.1600       172
     5.1800       174
     5.2000       174
     5.2200       154
     5.2400       170
     5.2600       160
     5.2800       164
     5.3000       168
     5.3200       166
     5.3400       174
     5.3600       168
     5.3800       170
     5.4000       154
     5.4200       170
     5.4400       170
     5.4600       186
     5.4800       170
     5.5000       168
     5.5200       170
     5.5400       170
     5.5600       154
     5.5800       180
     5.6000       174
     5.6200       130
     5.6400       150
     5.6600       170
     5.6800       146
     5.7000       156
     5.7200       148
     5.7400       190
     5.7600       174
     5.7800       188
     5.8000       182
     5.8200       174
     5.8400       152
     5.8600       176
     5.8800       146
     5.9000       164
     5.9200       156
     5.9400       162
     5.9600       174
     5.9800       164
     6.0000       184
     6.0200       190
     6.0400       174
     6.0600       190
     6.0800       164
     6.1000       156
     6.1200       152
     6.1400       172
     6.1600       180
     6.1800       182
     6.2000       160
     6.2200       148
     6.2400       168
     6.2600       148
     6.2800       154
     6.3000       154
     6.3200       170
     6.3400       162
     6.3600       160
     6.3800       124
     6.4000       168
     6.4200       144
     6.4400       160
     6.4600       150
     6.4800       160
     6.5000       158
     6.5200       130
     6.5400       172
     6.5600       138
     6.5800       134
     6.6000       136
     6.6200       130
     6.6400       118
     6.6600       156
     6.6800       148
     6.7000       138
     6.7200       136
     6.7400       126
     6.7600       140
     6.7800       144
     6.8000       136
     6.8200       142
     6.8400       124
     6.8600       134
     6.8800       136
     6.9000       136
     6.9200       140
     6.9400       142
     6.9600       118
     6.9800       142
     7.0000       110
     7.0200       142
     7.0400       132
     7.0600       144
     7.0800       126
     7.1000       128
     7.1200       124
     7.1400       122
     7.1600       130
     7.1800       118
     7.2000       132
     7.2200       108
     7.2400       116
     7.2600       144
     7.2800       112
     7.3000       118
     7.3200       110
     7.3400       130
     7.3600       118
     7.3800       124
     7.4000       112
     7.4200       110
     7.4400       136
     7.4600       132
     7.4800       132
     7.5000        92
     7.5200       128
     7.5400       134
     7.5600       124
     7.5800       126
     7.6000       110
     7.6200       110
     7.6400       114
     7.6600       124
     7.6800       110
     7.7000       122
     7.7200       114
     7.7400       112
     7.7600       120
     7.7800       122
     7.8000       118
     7.8200       144
     7.8400       108
     7.8600        96
     7.8800       126
     7.9000       146
     7.9200       120
     7.9400       122
     7.9600       128
     7.9800       110
     8.0000       130
     8.0200       112
     8.0400       120
     8.0600       122
     8.0800       104
     8.1000       128
     8.1200       132
     8.1400       126
     8.1600       124
     8.1800       132
     8.2000       132
     8.2200       112
     8.2400       114
     8.2600       126
     8.2800       126
     8.3000       128
     8.3200       136
     8.3400       132
     8.3600       146
     8.3800       132
     8.4000       128
     8.4200       140
     8.4400       136
     8.4600       130
     8.4800       144
     8.5000       136
     8.5200       138
     8.5400       166
     8.5600       166
     8.5800       136
     8.6000       122
     8.6200       152
     8.6400       148
     8.6600       148
     8.6800       148
     8.7000       168
     8.7200       168
     8.7400       184
     8.7600       160
     8.7800       122
     8.8000       134
     8.8200       144
     8.8400       162
     8.8600       164
     8.8800       134
     8.9000       160
     8.9200       188
     8.9400       164
     8.9600       174
     8.9800       166
     9.0000       150
     9.0200       168
     9.0400       182
     9.0600       168
     9.0800       222
     9.1000       176
     9.1200       194
     9.1400       220
     9.1600       224
     9.1800       244
     9.2000       310
     9.2200       298
     9.2400       400
     9.2600       372
     9.2800       404
     9.3000       434
     9.3200       498
     9.3400       532
     9.3600       654
     9.3800       696
     9.4000       908
     9.4200      1078
     9.4400      1076
     9.4600      1094
     9.4800      1260
     9.5000      1396
     9.5200      1684
     9.5400      2006
     9.5600      2558
     9.5800      3270
     9.6000      4438
     9.6200      6652
     9.6400      9594
     9.6600     12332
     9.6800     12004
     9.7000      9398
     9.7200      5898
     9.7400      3460
     9.7600      1856
     9.7800      1092
     9.8000       752
     9.8200       628
     9.8400       694
     9.8600       712
     9.8800       678
     9.9000       590
     9.9200       628
     9.9400       630
     9.9600       586
     9.9800       412
    10.0000       300
    10.0200       212
    10.0400       176
    10.0600       154
    10.0800       148
    10.1000       132
    10.1200       128
    10.1400       138
    10.1600       134
    10.1800       112
    10.2000       110
    10.2200       130
    10.2400       116
    10.2600       122
    10.2800       102
    10.3000       100
    10.3200       110
    10.3400       108
    10.3600       122
    10.3800       130
    10.4000       118
    10.4200       116
    10.4400       118
    10.4600        88
    10.4800       114
    10.5000       120
    10.5200       128
    10.5400       106
    10.5600        88
    10.5800       118
    10.6000       106
    10.6200       108
    10.6400       120
    10.6600       118
    10.6800       124
    10.7000       114
    10.7200       104
    10.7400       130
    10.7600       104
    10.7800       102
    10.8000       110
    10.8200       104
    10.8400       102
    10.8600       116
    10.8800       108
    10.9000        92
    10.9200       112
    10.9400       112
    10.9600        96
    10.9800       104
    11.0000       100
    11.0200        82
    11.0400       114
    11.0600        86
    11.0800        74
    11.1000       114
    11.1200       110
    11.1400       104
    11.1600        92
    11.1800       100
    11.2000        90
    11.2200       108
    11.2400       102
    11.2600       110
    11.2800        90
    11.3000       100
    11.3200        94
    11.3400        98
    11.3600        96
    11.3800        88
    11.4000       100
    11.4200       104
    11.4400        88
    11.4600        72
    11.4800       106
    11.5000        94
    11.5200        98
    11.5400       100
    11.5600        94
    11.5800        82
    11.6000        82
    11.6200        80
    11.6400        78
    11.6600        80
    11.6800        88
    11.7000        86
    11.7200        88
    11.7400        82
    11.7600        92
    11.7800        84
    11.8000       100
    11.8200        94
    11.8400        82
    11.8600        84
    11.8800        68
    11.9000       114
    11.9200       104
    11.9400        80
    11.9600        80
    11.9800        82
    12.0000        98
    12.0200        96
    12.0400        90
    12.0600        62
    12.0800        82
    12.1000        88
    12.1200        84
    12.1400       102
    12.1600        88
    12.1800        78
    12.2000        88
    12.2200        78
    12.2400        80
    12.2600        70
    12.2800        98
    12.3000        90
    12.3200       102
    12.3400        62
    12.3600        98
    12.3800        86
    12.4000        96
    12.4200       102
    12.4400        86
    12.4600        70
    12.4800       116
    12.5000        92
    12.5200        82
    12.5400        96
    12.5600        76
    12.5800        70
    12.6000        84
    12.6200        82
    12.6400        74
    12.6600        86
    12.6800        92
    12.7000        76
    12.7200        78
    12.7400       100
    12.7600        68
    12.7800        76
    12.8000        80
    12.8200        72
    12.8400        86
    12.8600        88
    12.8800        96
    12.9000        82
    12.9200        76
    12.9400        66
    12.9600        94
    12.9800        84
    13.0000       100
    13.0200        88
    13.0400        66
    13.0600        88
    13.0800        90
    13.1000        80
    13.1200        54
    13.1400        88
    13.1600        88
    13.1800        84
    13.2000        74
    13.2200        74
    13.2400        78
    13.2600        82
    13.2800        80
    13.3000        76
    13.3200        78
    13.3400        84
    13.3600        74
    13.3800        60
    13.4000        78
    13.4200        76
    13.4400        68
    13.4600        76
    13.4800        98
    13.5000        86
    13.5200        90
    13.5400        72
    13.5600        80
    13.5800        82
    13.6000        88
    13.6200        80
    13.6400        80
    13.6600        84
    13.6800        90
    13.7000       118
    13.7200       114
    13.7400       136
    13.7600       156
    13.7800       124
    13.8000       106
    13.8200        92
    13.8400       112
    13.8600       108
    13.8800       112
    13.9000        84
    13.9200        98
    13.9400        84
    13.9600        92
    13.9800        88
    14.0000        74
    14.0200        84
    14.0400        74
    14.0600        82
    14.0800        88
    14.1000        88
    14.1200        66
    14.1400        58
    14.1600        76
    14.1800        74
    14.2000        66
    14.2200        72
    14.2400        84
    14.2600        80
    14.2800        78
    14.3000        54
    14.3200        68
    14.3400        70
    14.3600        82
    14.3800        68
    14.4000        66
    14.4200        68
    14.4400        90
    14.4600        72
    14.4800        68
    14.5000        90
    14.5200        76
    14.5400        66
    14.5600        68
    14.5800        66
    14.6000        82
    14.6200        84
    14.6400        68
    14.6600        80
    14.6800        80
    14.7000        60
    14.7200        66
    14.7400        70
    14.7600        46
    14.7800        84
    14.8000        62
    14.8200        72
    14.8400        60
    14.8600        64
    14.8800        72
    14.9000        70
    14.9200        60
    14.9400        72
    14.9600        78
    14.9800        82
    15.0000        74
    15.0200        60
    15.0400        84
    15.0600        62
    15.0800        50
    15.1000        58
    15.1200        68
    15.1400        52
    15.1600        52
    15.1800        68
    15.2000        66
    15.2200        74
    15.2400        72
    15.2600        60
    15.2800        72
    15.3000        64
    15.3200        68
    15.3400        64
    15.3600        66
    15.3800        68
    15.4000        54
    15.4200        72
    15.4400        66
    15.4600        62
    15.4800        64
    15.5000        64
    15.5200        68
    15.5400        70
    15.5600        60
    15.5800        68
    15.6000        76
    15.6200        66
    15.6400        46
    15.6600        76
    15.6800        62
    15.7000        80
    15.7200        56
    15.7400        58
    15.7600        66
    15.7800        76
    15.8000        76
    15.8200        64
    15.8400        68
    15.8600        66
    15.8800        68
    15.9000        72
    15.9200        66
    15.9400        78
    15.9600        78
    15.9800        64
    16.0000        76
    16.0200        66
    16.0400        84
    16.0600        62
    16.0800        74
    16.1000        76
    16.1200        64
    16.1400        80
    16.1600        74
    16.1800        84
    16.2000       108
    16.2200        92
    16.2400        72
    16.2600        84
    16.2800        90
    16.3000        64
    16.3200        68
    16.3400        76
    16.3600        76
    16.3800        84
    16.4000        80
    16.4200        86
    16.4400        84
    16.4600        74
    16.4800       104
    16.5000        94
    16.5200        96
    16.5400       106
    16.5600       156
    16.5800       166
    16.6000       204
    16.6200       192
    16.6400       210
    16.6600       176
    16.6800       168
    16.7000       156
    16.7200       108
    16.7400       120
    16.7600        76
    16.7800        90
    16.8000        82
    16.8200        76
    16.8400       100
    16.8600       122
    16.8800       120
    16.9000       110
    16.9200        98
    16.9400        86
    16.9600        86
    16.9800        72
    17.0000        66
    17.0200        48
    17.0400        80
    17.0600        48
    17.0800        88
    17.1000        60
    17.1200        54
    17.1400        68
    17.1600        68
    17.1800        66
    17.2000        62
    17.2200        76
    17.2400        76
    17.2600        60
    17.2800        58
    17.3000        70
    17.3200        64
    17.3400        72
    17.3600        74
    17.3800        52
    17.4000        58
    17.4200        42
    17.4400        72
    17.4600        78
    17.4800        68
    17.5000        54
    17.5200        66
    17.5400        56
    17.5600        76
    17.5800        72
    17.6000        46
    17.6200        64
    17.6400        54
    17.6600        64
    17.6800        62
    17.7000        64
    17.7200        66
    17.7400        80
    17.7600        64
    17.7800        68
    17.8000        44
    17.8200        80
    17.8400        70
    17.8600        68
    17.8800        58
    17.9000        70
    17.9200        62
    17.9400        56
    17.9600        52
    17.9800        68
    18.0000        72
    18.0200        42
    18.0400        66
    18.0600        72
    18.0800        64
    18.1000        68
    18.1200        60
    18.1400        76
    18.1600        52
    18.1800        62
    18.2000        62
    18.2200        64
    18.2400        70
    18.2600        58
    18.2800        54
    18.3000        68
    18.3200        48
    18.3400        72
    18.3600        62
    18.3800        58
    18.4000        66
    18.4200        56
    18.4400        60
    18.4600        80
    18.4800        82
    18.5000        62
    18.5200        76
    18.5400        74
    18.5600        80
    18.5800        48
    18.6000        84
    18.6200        90
    18.6400        74
    18.6600        60
    18.6800       100
    18.7000        92
    18.7200        64
    18.7400       104
    18.7600       114
    18.7800       128
    18.8000       134
    18.8200       128
    18.8400       172
    18.8600       162
    18.8800       194
    18.9000       242
    18.9200       194
    18.9400       238
    18.9600       232
    18.9800       186
    19.0000       200
    19.0200       204
    19.0400       208
    19.0600       218
    19.0800       214
    19.1000       206
    19.1200       204
    19.1400       218
    19.1600       226
    19.1800       212
    19.2000       194
    19.2200       192
    19.2400       182
    19.2600       208
    19.2800       212
    19.3000       276
    19.3200       438
    19.3400       600
    19.3600       642
    19.3800       756
    19.4000       746
    19.4200       596
    19.4400       502
    19.4600       382
    19.4800       276
    19.5000       208
    19.5200       142
    19.5400       106
    19.5600        96
    19.5800       100
    19.6000       110
    19.6200        94
    19.6400       108
    19.6600       114
    19.6800       102
    19.7000        84
    19.7200        96
    19.7400        88
    19.7600       106
    19.7800        90
    19.8000        96
    19.8200        64
    19.8400       100
    19.8600        92
    19.8800        90
    19.9000        98
    19.9200       132
    19.9400       186
    19.9600       236
    19.9800       210
    20.0000       180
    20.0200       156
    20.0400       102
    20.0600        70
    20.0800        82
    20.1000        60
    20.1200        66
    20.1400        78
    20.1600        60
    20.1800        68
    20.2000        62
    20.2200        74
    20.2400        54
    20.2600        54
    20.2800        64
    20.3000        66
    20.3200        66
    20.3400        70
    20.3600        72
    20.3800        90
    20.4000        72
    20.4200        64
    20.4400        82
    20.4600        72
    20.4800        64
    20.5000        82
    20.5200       106
    20.5400        96
    20.5600       128
    20.5800       110
    20.6000       156
    20.6200       164
    20.6400       192
    20.6600       152
    20.6800       140
    20.7000       120
    20.7200       140
    20.7400       134
    20.7600        96
    20.7800       138
    20.8000       126
    20.8200       124
    20.8400        98
    20.8600        88
    20.8800       100
    20.9000        72
    20.9200        80
    20.9400        58
    20.9600        84
    20.9800        62
    21.0000        66
    21.0200        72
    21.0400        76
    21.0600        72
    21.0800        70
    21.1000        64
    21.1200        58
    21.1400        86
    21.1600        74
    21.1800        72
    21.2000        76
    21.2200        86
    21.2400        72
    21.2600        76
    21.2800        72
    21.3000        86
    21.3200        92
    21.3400        92
    21.3600        78
    21.3800       112
    21.4000       112
    21.4200       104
    21.4400       146
    21.4600       124
    21.4800       150
    21.5000       164
    21.5200       204
    21.5400       226
    21.5600       262
    21.5800       268
    21.6000       294
    21.6200       354
    21.6400       488
    21.6600       604
    21.6800       772
    21.7000       938
    21.7200      1178
    21.7400      1422
    21.7600      1700
    21.7800      1980
    21.8000      2182
    21.8200      2414
    21.8400      2384
    21.8600      2164
    21.8800      1842
    21.9000      1546
    21.9200      1270
    21.9400      1010
    21.9600       768
    21.9800       592
    22.0000       458
    22.0200       330
    22.0400       222
    22.0600       224
    22.0800       166
    22.1000       148
    22.1200       184
    22.1400       180
    22.1600       186
    22.1800       188
    22.2000       184
    22.2200       184
    22.2400       148
    22.2600       130
    22.2800       110
    22.3000        82
    22.3200        86
    22.3400        66
    22.3600        82
    22.3800        80
    22.4000        58
    22.4200        74
    22.4400        72
    22.4600        56
    22.4800        56
    22.5000        54
    22.5200        62
    22.5400        74
    22.5600        54
    22.5800        52
    22.6000        54
    22.6200        64
    22.6400        56
    22.6600        52
    22.6800        46
    22.7000        48
    22.7200        50
    22.7400        58
    22.7600        76
    22.7800        58
    22.8000        56
    22.8200        52
    22.8400        54
    22.8600        56
    22.8800        66
    22.9000        48
    22.9200        48
    22.9400        54
    22.9600        50
    22.9800        60
    23.0000        42
    23.0200        50
    23.0400        48
    23.0600        56
    23.0800        56
    23.1000        50
    23.1200        62
    23.1400        58
    23.1600        52
    23.1800        66
    23.2000        46
    23.2200        50
    23.2400        58
    23.2600        58
    23.2800        50
    23.3000        66
    23.3200        52
    23.3400        68
    23.3600        72
    23.3800        86
    23.4000        88
    23.4200        84
    23.4400        92
    23.4600        58
    23.4800        72
    23.5000        56
    23.5200        66
    23.5400        76
    23.5600        86
    23.5800        68
    23.6000        82
    23.6200        78
    23.6400       116
    23.6600        94
    23.6800       122
    23.7000       110
    23.7200       110
    23.7400       104
    23.7600       106
    23.7800        96
    23.8000        88
    23.8200        70
    23.8400        72
    23.8600        76
    23.8800        84
    23.9000        88
    23.9200        78
    23.9400        84
    23.9600        86
    23.9800       100
    24.0000        90
    24.0200        88
    24.0400       100
    24.0600        72
    24.0800        58
    24.1000        66
    24.1200        76
    24.1400        58
    24.1600        68
    24.1800        54
    24.2000        56
    24.2200        56
    24.2400        56
    24.2600        60
    24.2800        60
    24.3000        44
    24.3200        54
    24.3400        42
    24.3600        42
    24.3800        64
    24.4000        44
    24.4200        56
    24.4400        44
    24.4600        60
    24.4800        66
    24.5000        48
    24.5200        56
    24.5400        54
    24.5600        50
    24.5800        56
    24.6000        42
    24.6200        38
    24.6400        50
    24.6600        38
    24.6800        38
    24.7000        38
    24.7200        50
    24.7400        60
    24.7600        50
    24.7800        56
    24.8000        50
    24.8200        64
    24.8400        48
    24.8600        56
    24.8800        30
    24.9000        56
    24.9200        54
    24.9400        56
    24.9600        54
    24.9800        70
    25.0000        60
    25.0200        46
    25.0400        54
    25.0600        58
    25.0800        52
    25.1000        48
    25.1200        48
    25.1400        56
    25.1600        66
    25.1800        50
    25.2000        64
    25.2200        78
    25.2400        68
    25.2600        60
    25.2800        76
    25.3000        76
    25.3200        72
    25.3400        80
    25.3600        98
    25.3800       114
    25.4000        88
    25.4200        98
    25.4400       128
    25.4600       106
    25.4800       134
    25.5000       112
    25.5200       108
    25.5400       128
    25.5600       130
    25.5800       182
    25.6000       116
    25.6200       170
    25.6400       148
    25.6600       140
    25.6800       124
    25.7000       124
    25.7200       114
    25.7400        98
    25.7600        88
    25.7800        66
    25.8000        88
    25.8200        74
    25.8400        86
    25.8600        66
    25.8800        90
    25.9000        74
    25.9200        88
    25.9400       104
    25.9600       106
    25.9800       106
    26.0000       122
    26.0200       138
    26.0400       148
    26.0600       206
    26.0800       196
    26.1000       192
    26.1200       214
    26.1400       204
    26.1600       222
    26.1800       266
    26.2000       314
    26.2200       254
    26.2400       258
    26.2600       240
    26.2800       214
    26.3000       186
    26.3200       216
    26.3400       226
    26.3600       264
    26.3800       264
    26.4000       258
    26.4200       208
    26.4400       210
    26.4600       158
    26.4800       132
    26.5000        98
    26.5200        80
    26.5400        66
    26.5600        70
    26.5800        56
    26.6000        70
    26.6200        48
    26.6400        46
    26.6600        50
    26.6800        62
    26.7000        48
    26.7200        64
    26.7400        42
    26.7600        54
    26.7800        42
    26.8000        50
    26.8200        56
    26.8400        46
    26.8600        44
    26.8800        46
    26.9000        50
    26.9200        56
    26.9400        52
    26.9600        40
    26.9800        38
    27.0000        50
    27.0200        46
    27.0400        62
    27.0600        50
    27.0800        48
    27.1000        58
    27.1200        58
    27.1400        50
    27.1600        74
    27.1800        46
    27.2000        60
    27.2200        24
    27.2400        56
    27.2600        60
    27.2800        58
    27.3000        50
    27.3200        50
    27.3400        40
    27.3600        48
    27.3800        56
    27.4000        52
    27.4200        48
    27.4400        56
    27.4600        50
    27.4800        62
    27.5000        62
    27.5200        52
    27.5400        58
    27.5600        50
    27.5800        44
    27.6000        60
    27.6200        62
    27.6400        66
    27.6600        68
    27.6800        80
    27.7000        74
    27.7200        90
    27.7400        98
    27.7600       120
    27.7800       124
    27.8000       144
    27.8200       174
    27.8400       214
    27.8600       278
    27.8800       316
    27.9000       288
    27.9200       316
    27.9400       250
    27.9600       236
    27.9800       192
    28.0000       192
    28.0200       152
    28.0400       128
    28.0600        96
    28.0800        88
    28.1000       102
    28.1200        90
    28.1400        88
    28.1600       102
    28.1800        88
    28.2000        90
    28.2200        72
    28.2400        74
    28.2600        60
    28.2800        78
    28.3000        66
    28.3200        56
    28.3400        52
    28.3600        68
    28.3800        68
    28.4000        72
    28.4200        72
    28.4400        90
    28.4600        80
    28.4800       106
    28.5000        74
    28.5200        94
    28.5400       100
    28.5600       116
    28.5800       124
    28.6000       130
    28.6200       102
    28.6400       100
    28.6600        96
    28.6800        86
    28.7000        86
    28.7200        74
    28.7400        64
    28.7600       106
    28.7800        92
    28.8000       106
    28.8200        82
    28.8400        70
    28.8600       100
    28.8800       114
    28.9000       138
    28.9200       124
    28.9400       130
    28.9600       138
    28.9800       170
    29.0000       168
    29.0200       200
    29.0400       216
    29.0600       276
    29.0800       318
    29.1000       402
    29.1200       476
    29.1400       670
    29.1600       828
    29.1800      1100
    29.2000      1360
    29.2200      1618
    29.2400      1960
    29.2600      2182
    29.2800      2428
    29.3000      2380
    29.3200      2206
    29.3400      1940
    29.3600      1738
    29.3800      1532
    29.4000      1300
    29.4200      1102
    29.4400       934
    29.4600       832
    29.4800       634
    29.5000       578
    29.5200       490
    29.5400       384
    29.5600       338
    29.5800       296
    29.6000       266
    29.6200       246
    29.6400       264
    29.6600       246
    29.6800       232
    29.7000       222
    29.7200       234
    29.7400       244
    29.7600       252
    29.7800       240
    29.8000       238
    29.8200       302
    29.8400       304
    29.8600       344
    29.8800       374
    29.9000       310
    29.9200       250
    29.9400       196
    29.9600       164
    29.9800       204
    30.0000       142
    30.0200       124
    30.0400       138
    30.0600       116
    30.0800       138
    30.1000       180
    30.1200       204
    30.1400       256
    30.1600       204
    30.1800       178
    30.2000       128
    30.2200       140
    30.2400        94
    30.2600        74
    30.2800        66
    30.3000        78
    30.3200        58
    30.3400        38
    30.3600        56
    30.3800        50
    30.4000        56
    30.4200        64
    30.4400        36
    30.4600        66
    30.4800        52
    30.5000        66
    30.5200        58
    30.5400        58
    30.5600        46
    30.5800        58
    30.6000        58
    30.6200        62
    30.6400        48
    30.6600        58
    30.6800        68
    30.7000        50
    30.7200        62
    30.7400        70
    30.7600        90
    30.7800        84
    30.8000        68
    30.8200        86
    30.8400        88
    30.8600       112
    30.8800       114
    30.9000       146
    30.9200       164
    30.9400       230
    30.9600       216
    30.9800       222
    31.0000       234
    31.0200       202
    31.0400       170
    31.0600       190
    31.0800       142
    31.1000       130
    31.1200        98
    31.1400        98
    31.1600        82
    31.1800        92
    31.2000        74
    31.2200        60
    31.2400        44
    31.2600        56
    31.2800        72
    31.3000        70
    31.3200        60
    31.3400        48
    31.3600        42
    31.3800        66
    31.4000        52
    31.4200        60
    31.4400        60
    31.4600        54
    31.4800        50
    31.5000        58
    31.5200        70
    31.5400        62
    31.5600        76
    31.5800        88
    31.6000       100
    31.6200       108
    31.6400        88
    31.6600       124
    31.6800       136
    31.7000       142
    31.7200       126
    31.7400       138
    31.7600       128
    31.7800       128
    31.8000       140
    31.8200       118
    31.8400       110
    31.8600       130
    31.8800       154
    31.9000       146
    31.9200       136
    31.9400       162
    31.9600       192
    31.9800       224
    32.0000       228
    32.0200       394
    32.0400       428
    32.0600       546
    32.0800       620
    32.1000       656
    32.1200       618
    32.1400       590
    32.1600       584
    32.1800       466
    32.2000       374
    32.2200       348
    32.2400       220
    32.2600       202
    32.2800       186
    32.3000       122
    32.3200       110
    32.3400       100
    32.3600        84
    32.3800        68
    32.4000        76
    32.4200        58
    32.4400        82
    32.4600        70
    32.4800        64
    32.5000        64
    32.5200        70
    32.5400        52
    32.5600        72
    32.5800        58
    32.6000        74
    32.6200        70
    32.6400        74
    32.6600        74
    32.6800        74
    32.7000       102
    32.7200       106
    32.7400       106
    32.7600       112
    32.7800       152
    32.8000       142
    32.8200       132
    32.8400       116
    32.8600       130
    32.8800        94
    32.9000       112
    32.9200        88
    32.9400        68
    32.9600        74
    32.9800        60
    33.0000        66
    33.0200        72
    33.0400        48
    33.0600        66
    33.0800        54
    33.1000        60
    33.1200        60
    33.1400        68
    33.1600        54
    33.1800        56
    33.2000        70
    33.2200        56
    33.2400        60
    33.2600        60
    33.2800        58
    33.3000        50
    33.3200        68
    33.3400        62
    33.3600        66
    33.3800        62
    33.4000        50
    33.4200        54
    33.4400        52
    33.4600        50
    33.4800        62
    33.5000        48
    33.5200        60
    33.5400        64
    33.5600        62
    33.5800        60
    33.6000        66
    33.6200        54
    33.6400        62
    33.6600        58
    33.6800        46
    33.7000        66
    33.7200        60
    33.7400        62
    33.7600        58
    33.7800        68
    33.8000        62
    33.8200        50
    33.8400        60
    33.8600        62
    33.8800        56
    33.9000        56
    33.9200        60
    33.9400        56
    33.9600        54
    33.9800        46
    34.0000        62
    34.0200        52
    34.0400        58
    34.0600        68
    34.0800        48
    34.1000        62
    34.1200        70
    34.1400        72
    34.1600        60
    34.1800        80
    34.2000        80
    34.2200        64
    34.2400        78
    34.2600        66
    34.2800        80
    34.3000        78
    34.3200        70
    34.3400        76
    34.3600        78
    34.3800        92
    34.4000        80
    34.4200        98
    34.4400        80
    34.4600        96
    34.4800       114
    34.5000        88
    34.5200       102
    34.5400       122
    34.5600       130
    34.5800       132
    34.6000       116
    34.6200       124
    34.6400       124
    34.6600       124
    34.6800       126
    34.7000       130
    34.7200       148
    34.7400       144
    34.7600       174
    34.7800       130
    34.8000       138
    34.8200       156
    34.8400       148
    34.8600       122
    34.8800       166
    34.9000       142
    34.9200       160
    34.9400       170
    34.9600       152
    34.9800       184
    35.0000       174
    35.0200       162
    35.0400       158
    35.0600       166
    35.0800       134
    35.1000       106
    35.1200       106
    35.1400        94
    35.1600       102
    35.1800       102
    35.2000        98
    35.2200       138
    35.2400       140
    35.2600       156
    35.2800       180
    35.3000       162
    35.3200       202
    35.3400       188
    35.3600       182
    35.3800       164
    35.4000       152
    35.4200       136
    35.4400       126
    35.4600       116
    35.4800       114
    35.5000       124
    35.5200        88
    35.5400       114
    35.5600       130
    35.5800       168
    35.6000       184
    35.6200       186
    35.6400       234
    35.6600       230
    35.6800       256
    35.7000       222
    35.7200       202
    35.7400       166
    35.7600       154
    35.7800       122
    35.8000       108
    35.8200        82
    35.8400        82
    35.8600        86
    35.8800        78
    35.9000        68
    35.9200        74
    35.9400        84
    35.9600        86
    35.9800        84
    36.0000        86
    36.0200       100
    36.0400       102
    36.0600       104
    36.0800        98
    36.1000       116
    36.1200        96
    36.1400        98
    36.1600       104
    36.1800        80
    36.2000        64
    36.2200        78
    36.2400        90
    36.2600        86
    36.2800        94
    36.3000        86
    36.3200       114
    36.3400        98
    36.3600        98
    36.3800        82
    36.4000        86
    36.4200        96
    36.4400        96
    36.4600        90
    36.4800        72
    36.5000        64
    36.5200        80
    36.5400        68
    36.5600        70
    36.5800        62
    36.6000        68
    36.6200        48
    36.6400        66
    36.6600        58
    36.6800        72
    36.7000        94
    36.7200        88
    36.7400        94
    36.7600        82
    36.7800        94
    36.8000        80
    36.8200        82
    36.8400        62
    36.8600        68
    36.8800        68
    36.9000        64
    36.9200        50
    36.9400        48
    36.9600        42
    36.9800        46
    37.0000        54
    37.0200        64
    37.0400        44
    37.0600        42
    37.0800        58
    37.1000        50
    37.1200        38
    37.1400        38
    37.1600        46
    37.1800        56
    37.2000        60
    37.2200        46
    37.2400        42
    37.2600        52
    37.2800        46
    37.3000        50
    37.3200        44
    37.3400        42
    37.3600        30
    37.3800        46
    37.4000        52
    37.4200        38
    37.4400        46
    37.4600        40
    37.4800        32
    37.5000        42
    37.5200        40
    37.5400        44
    37.5600        50
    37.5800        50
    37.6000        68
    37.6200        50
    37.6400        46
    37.6600        44
    37.6800        56
    37.7000        64
    37.7200        52
    37.7400        62
    37.7600        48
    37.7800        46
    37.8000        58
    37.8200        42
    37.8400        76
    37.8600        64
    37.8800        60
    37.9000        76
    37.9200        64
    37.9400        90
    37.9600        86
    37.9800       124
    38.0000       156
    38.0200       150
    38.0400       138
    38.0600       166
    38.0800       176
    38.1000       204
    38.1200       206
    38.1400       204
    38.1600       190
    38.1800       216
    38.2000       190
    38.2200       204
    38.2400       196
    38.2600       136
    38.2800       122
    38.3000       108
    38.3200       138
    38.3400       100
    38.3600        86
    38.3800        74
    38.4000        76
    38.4200        62
    38.4400        68
    38.4600        66
    38.4800        40
    38.5000        66
    38.5200        64
    38.5400        50
    38.5600        50
    38.5800        40
    38.6000        44
    38.6200        56
    38.6400        48
    38.6600        56
    38.6800        64
    38.7000        70
    38.7200        62
    38.7400        58
    38.7600        50
    38.7800        58
    38.8000        58
    38.8200        66
    38.8400        70
    38.8600        62
    38.8800        78
    38.9000        76
    38.9200        66
    38.9400        76
    38.9600        84
    38.9800        68
    39.0000        68
    39.0200        80
    39.0400        76
    39.0600        58
    39.0800        72
    39.1000        64
    39.1200        54
    39.1400        54
    39.1600        50
    39.1800        60
    39.2000        58
    39.2200        54
    39.2400        62
    39.2600        56
    39.2800        64
    39.3000        60
    39.3200        76
    39.3400        58
    39.3600        60
    39.3800        74
    39.4000        64
    39.4200        64
    39.4400        64
    39.4600        64
    39.4800        66
    39.5000        52
    39.5200        46
    39.5400        56
    39.5600        50
    39.5800        52
    39.6000        62
    39.6200        56
    39.6400        56
    39.6600        54
    39.6800        54
    39.7000        50
    39.7200        44
    39.7400        46
    39.7600        52
    39.7800        48
    39.8000        62
    39.8200        40
    39.8400        62
    39.8600        54
    39.8800        52
    39.9000        44
    39.9200        52
    39.9400        64
    39.9600        56
    39.9800        58
    40.0000        68
    40.0200        60
    40.0400        64
    40.0600        92
    40.0800        68
    40.1000        62
    40.1200        68
    40.1400        76
    40.1600        82
    40.1800        88
    40.2000        78
    40.2200        76
    40.2400       106
    40.2600        98
    40.2800       116
    40.3000        90
    40.3200       100
    40.3400        80
    40.3600        86
    40.3800        90
    40.4000        88
    40.4200        88
    40.4400        80
    40.4600        80
    40.4800        86
    40.5000        94
    40.5200        94
    40.5400       120
    40.5600       112
    40.5800       110
    40.6000        82
    40.6200       114
    40.6400        80
    40.6600        98
    40.6800       116
    40.7000        92
    40.7200        96
    40.7400        84
    40.7600        82
    40.7800        68
    40.8000        70
    40.8200        80
    40.8400        72
    40.8600        72
    40.8800        72
    40.9000        62
    40.9200        62
    40.9400        56
    40.9600        56
    40.9800        50
    41.0000        56
    41.0200        72
    41.0400        44
    41.0600        64
    41.0800        38
    41.1000        48
    41.1200        34
    41.1400        58
    41.1600        62
    41.1800        64
    41.2000        52
    41.2200        50
    41.2400        56
    41.2600        60
    41.2800        50
    41.3000        44
    41.3200        48
    41.3400        52
    41.3600        54
    41.3800        68
    41.4000        58
    41.4200        48
    41.4400        58
    41.4600        44
    41.4800        56
    41.5000        44
    41.5200        74
    41.5400        58
    41.5600        68
    41.5800        60
    41.6000        48
    41.6200        80
    41.6400        84
    41.6600        56
    41.6800        90
    41.7000        80
    41.7200        88
    41.7400        80
    41.7600        84
    41.7800        92
    41.8000        66
    41.8200        62
    41.8400        58
    41.8600        70
    41.8800        60
    41.9000        62
    41.9200        54
    41.9400        50
    41.9600        48
    41.9800        48
    42.0000        50
    42.0200        48
    42.0400        58
    42.0600        42
    42.0800        42
    42.1000        62
    42.1200        66
    42.1400        52
    42.1600        44
    42.1800        50
    42.2000        56
    42.2200        48
    42.2400        52
    42.2600        62
    42.2800        60
    42.3000        60
    42.3200        64
    42.3400        70
    42.3600        76
    42.3800        92
    42.4000        88
    42.4200       118
    42.4400       132
    42.4600       118
    42.4800       134
    42.5000       116
    42.5200       130
    42.5400       156
    42.5600       128
    42.5800       116
    42.6000        94
    42.6200        96
    42.6400       102
    42.6600        68
    42.6800        62
    42.7000        60
    42.7200        80
    42.7400        76
    42.7600       100
    42.7800       100
    42.8000        98
    42.8200        96
    42.8400       122
    42.8600       110
    42.8800       114
    42.9000       120
    42.9200       108
    42.9400       128
    42.9600       118
    42.9800       118
    43.0000       112
    43.0200        90
    43.0400        82
    43.0600        76
    43.0800        78
    43.1000        84
    43.1200        58
    43.1400        52
    43.1600        60
    43.1800        56
    43.2000        68
    43.2200        44
    43.2400        54
    43.2600        58
    43.2800        68
    43.3000        62
    43.3200        68
    43.3400        70
    43.3600        84
    43.3800        92
    43.4000        80
    43.4200        74
    43.4400        70
    43.4600        74
    43.4800        76
    43.5000        78
    43.5200        84
    43.5400        74
    43.5600        76
    43.5800        72
    43.6000        90
    43.6200        74
    43.6400        68
    43.6600        74
    43.6800        74
    43.7000       118
    43.7200        96
    43.7400       130
    43.7600       114
    43.7800       106
    43.8000        90
    43.8200       124
    43.8400        82
    43.8600        84
    43.8800        84
    43.9000        92
    43.9200        98
    43.9400       110
    43.9600       116
    43.9800        82
    44.0000        92
    44.0200       100
    44.0400        80
    44.0600       102
    44.0800        82
    44.1000        94
    44.1200        84
    44.1400        60
    44.1600        44
    44.1800        74
    44.2000        80
    44.2200        76
    44.2400        66
    44.2600        66
    44.2800        76
    44.3000        84
    44.3200        64
    44.3400        74
    44.3600        92
    44.3800        76
    44.4000        90
    44.4200        98
    44.4400       126
    44.4600       150
    44.4800       182
    44.5000       156
    44.5200       182
    44.5400       176
    44.5600       162
    44.5800       144
    44.6000       162
    44.6200       128
    44.6400       140
    44.6600       110
    44.6800       102
    44.7000       106
    44.7200        76
    44.7400        78
    44.7600        70
    44.7800        74
    44.8000        62
    44.8200        76
    44.8400        46
    44.8600        66
    44.8800        60
    44.9000        52
    44.9200        46
    44.9400        56
    44.9600        40
    44.9800        66
    45.0000        46
    45.0200        56
    45.0400        48
    45.0600        48
    45.0800        46
    45.1000        56
    45.1200        52
    45.1400        56
    45.1600        56
    45.1800        68
    45.2000        66
    45.2200        64
    45.2400        62
    45.2600        80
    45.2800        84
    45.3000        70
    45.3200        96
    45.3400        82
    45.3600        98
    45.3800        94
    45.4000       102
    45.4200       108
    45.4400        68
    45.4600        80
    45.4800        84
    45.5000        62
    45.5200        56
    45.5400        46
    45.5600        66
    45.5800        52
    45.6000        60
    45.6200        42
    45.6400        52
    45.6600        56
    45.6800        52
    45.7000        48
    45.7200        64
    45.7400        40
    45.7600        36
    45.7800        42
    45.8000        66
    45.8200        58
    45.8400        48
    45.8600        50
    45.8800        44
    45.9000        54
    45.9200        60
    45.9400        52
    45.9600        32
    45.9800        46
    46.0000        50
    46.0200        36
    46.0400        46
    46.0600        48
    46.0800        54
    46.1000        58
    46.1200        60
    46.1400        36
    46.1600        58
    46.1800        36
    46.2000        40
    46.2200        34
    46.2400        38
    46.2600        64
    46.2800        38
    46.3000        44
    46.3200        62
    46.3400        54
    46.3600        44
    46.3800        56
    46.4000        54
    46.4200        52
    46.4400        44
    46.4600        50
    46.4800        76
    46.5000        56
    46.5200        48
    46.5400        50
    46.5600        54
    46.5800        40
    46.6000        46
    46.6200        48
    46.6400        58
    46.6600        60
    46.6800        54
    46.7000        52
    46.7200        54
    46.7400        48
    46.7600        48
    46.7800        44
    46.8000        44
    46.8200        48
    46.8400        36
    46.8600        56
    46.8800        30
    46.9000        52
    46.9200        38
    46.9400        38
    46.9600        46
    46.9800        48
    47.0000        52
    47.0200        44
    47.0400        50
    47.0600        46
    47.0800        52
    47.1000        50
    47.1200        44
    47.1400        54
    47.1600        56
    47.1800        48
    47.2000        50
    47.2200        56
    47.2400        58
    47.2600        52
    47.2800        48
    47.3000        62
    47.3200        64
    47.3400        48
    47.3600        48
    47.3800        58
    47.4000        48
    47.4200        54
    47.4400        52
    47.4600        54
    47.4800        58
    47.5000        50
    47.5200        66
    47.5400        60
    47.5600        72
    47.5800        76
    47.6000        92
    47.6200       112
    47.6400       114
    47.6600       120
    47.6800       134
    47.7000       142
    47.7200       154
    47.7400       178
    47.7600       174
    47.7800       174
    47.8000       164
    47.8200       158
    47.8400       120
    47.8600       160
    47.8800       156
    47.9000       126
    47.9200       130
    47.9400       114
    47.9600       118
    47.9800        82
    48.0000        76
    48.0200        66
    48.0400        82
    48.0600        74
    48.0800        76
    48.1000        72
    48.1200        68
    48.1400        74
    48.1600        84
    48.1800        52
    48.2000        64
    48.2200        56
    48.2400        70
    48.2600        70
    48.2800        74
    48.3000        84
    48.3200        70
    48.3400        96
    48.3600       100
    48.3800        96
    48.4000        98
    48.4200        92
    48.4400        96
    48.4600        90
    48.4800       108
    48.5000       114
    48.5200        96
    48.5400       100
    48.5600        74
    48.5800        78
    48.6000        80
    48.6200        60
    48.6400        68
    48.6600        66
    48.6800        60
    48.7000        68
    48.7200        66
    48.7400        50
    48.7600        68
    48.7800        56
    48.8000        60
    48.8200        64
    48.8400        60
    48.8600        66
    48.8800        58
    48.9000        60
    48.9200        58
    48.9400        56
    48.9600        58
    48.9800        58
    49.0000        58
    49.0200        70
    49.0400        52
    49.0600        76
    49.0800        60
    49.1000        56
    49.1200        86
    49.1400        92
    49.1600        72
    49.1800        82
    49.2000        70
    49.2200        62
    49.2400        82
    49.2600        92
    49.2800       106
    49.3000       110
    49.3200       116
    49.3400       132
    49.3600       118
    49.3800       114
    49.4000       116
    49.4200       126
    49.4400       146
    49.4600       134
    49.4800       144
    49.5000       178
    49.5200       184
    49.5400       162
    49.5600       204
    49.5800       190
    49.6000       254
    49.6200       298
    49.6400       338
    49.6600       398
    49.6800       532
    49.7000       722
    49.7200       966
    49.7400      1204
    49.7600      1310
    49.7800      1424
    49.8000      1820
    49.8200      2158
    49.8400      2404
    49.8600      2120
    49.8800      1856
    49.9000      1490
    49.9200      1326
    49.9400      1182
    49.9600      1272
    49.9800      1130
    50.0000       882
    50.0200       678
    50.0400       502
    50.0600       374
    50.0800       268
    50.1000       208
    50.1200       144
    50.1400       178
    50.1600       130
    50.1800       112
    50.2000       122
    50.2200       118
    50.2400       106
    50.2600        90
    50.2800       118
    50.3000       110
    50.3200       112
    50.3400       144
    50.3600       140
    50.3800       146
    50.4000       144
    50.4200       116
    50.4400       122
    50.4600       108
    50.4800        94
    50.5000       104
    50.5200        98
    50.5400       104
    50.5600        96
    50.5800        84
    50.6000        68
    50.6200        62
    50.6400        60
    50.6600        70
    50.6800        72
    50.7000        66
    50.7200        66
    50.7400        62
    50.7600        78
    50.7800        88
    50.8000        96
    50.8200       100
    50.8400        94
    50.8600       122
    50.8800       110
    50.9000       152
    50.9200       150
    50.9400       150
    50.9600       136
    50.9800       128
    51.0000       108
    51.0200       100
    51.0400       112
    51.0600       110
    51.0800       100
    51.1000        86
    51.1200        86
    51.1400        92
    51.1600        80
    51.1800        82
    51.2000        80
    51.2200        92
    51.2400        90
    51.2600       134
    51.2800       102
    51.3000       156
    51.3200       192
    51.3400       212
    51.3600       144
    51.3800       104
    51.4000        98
    51.4200        80
    51.4400        96
    51.4600       124
    51.4800       112
    51.5000        96
    51.5200        78
    51.5400        62
    51.5600        60
    51.5800        60
    51.6000        56
    51.6200        68
    51.6400        44
    51.6600        56
    51.6800        56
    51.7000        34
    51.7200        72
    51.7400        40
    51.7600        58
    51.7800        56
    51.8000        58
    51.8200        40
    51.8400        48
    51.8600        46
    51.8800        46
    51.9000        36
    51.9200        48
    51.9400        40
    51.9600        44
    51.9800        46
    52.0000        56
    52.0200        50
    52.0400        36
    52.0600        62
    52.0800        42
    52.1000        60
    52.1200        44
    52.1400        50
    52.1600        42
    52.1800        62
    52.2000        46
    52.2200        50
    52.2400        46
    52.2600        58
    52.2800        60
    52.3000        46
    52.3200        52
    52.3400        48
    52.3600        54
    52.3800        60
    52.4000        50
    52.4200        56
    52.4400        60
    52.4600        64
    52.4800        58
    52.5000        56
    52.5200        42
    52.5400        54
    52.5600        72
    52.5800        52
    52.6000        82
    52.6200        68
    52.6400        82
    52.6600       106
    52.6800        92
    52.7000       112
    52.7200       106
    52.7400       110
    52.7600       136
    52.7800       124
    52.8000       128
    52.8200       154
    52.8400       142
    52.8600       192
    52.8800       162
    52.9000       124
    52.9200       110
    52.9400       122
    52.9600        94
    52.9800       108
    53.0000       102
    53.0200        82
    53.0400        78
    53.0600        72
    53.0800        74
    53.1000        68
    53.1200        52
    53.1400        46
    53.1600        40
    53.1800        34
    53.2000        30
    53.2200        54
    53.2400        46
    53.2600        36
    53.2800        50
    53.3000        60
    53.3200        44
    53.3400        40
    53.3600        50
    53.3800        44
    53.4000        48
    53.4200        52
    53.4400        36
    53.4600        44
    53.4800        36
    53.5000        62
    53.5200        48
    53.5400        44
    53.5600        42
    53.5800        58
    53.6000        50
    53.6200        46
    53.6400        48
    53.6600        46
    53.6800        46
    53.7000        44
    53.7200        38
    53.7400        36
    53.7600        54
    53.7800        48
    53.8000        64
    53.8200        30
    53.8400        48
    53.8600        48
    53.8800        50
    53.9000        64
    53.9200        62
    53.9400        58
    53.9600        48
    53.9800        54
    54.0000        48
    54.0200        56
    54.0400        46
    54.0600        38
    54.0800        62
    54.1000        58
    54.1200        60
    54.1400        60
    54.1600        52
    54.1800        56
    54.2000        66
    54.2200        66
    54.2400        52
    54.2600        54
    54.2800        52
    54.3000        60
    54.3200        68
    54.3400        64
    54.3600        62
    54.3800        56
    54.4000        50
    54.4200        58
    54.4400        72
    54.4600        72
    54.4800        74
    54.5000        40
    54.5200        60
    54.5400        58
    54.5600        56
    54.5800        58
    54.6000        64
    54.6200        68
    54.6400        64
    54.6600        60
    54.6800        82
    54.7000        72
    54.7200        88
    54.7400        68
    54.7600        86
    54.7800        70
    54.8000       106
    54.8200        68
    54.8400        68
    54.8600        78
    54.8800        66
    54.9000        62
    54.9200        62
    54.9400        68
    54.9600        60
    54.9800        62
    55.0000        58
    55.0200        54
    55.0400        38
    55.0600        40
    55.0800        58
    55.1000        52
    55.1200        54
    55.1400        46
    55.1600        50
    55.1800        48
    55.2000        64
    55.2200        60
    55.2400        32
    55.2600        52
    55.2800        60
    55.3000        58
    55.3200        54
    55.3400        80
    55.3600        62
    55.3800        54
    55.4000        52
    55.4200        80
    55.4400        60
    55.4600        66
    55.4800        54
    55.5000        66
    55.5200        56
    55.5400        78
    55.5600        48
    55.5800        62
    55.6000        54
    55.6200        60
    55.6400        54
    55.6600        50
    55.6800        70
    55.7000        66
    55.7200        68
    55.7400        70
    55.7600        94
    55.7800        86
    55.8000        78
    55.8200        76
    55.8400        98
    55.8600       108
    55.8800       124
    55.9000       100
    55.9200       100
    55.9400       128
    55.9600       134
    55.9800       116
    56.0000       102
    56.0200        96
    56.0400       110
    56.0600        90
    56.0800       104
    56.1000        82
    56.1200        80
    56.1400        68
    56.1600        64
    56.1800        82
    56.2000        50
    56.2200        60
    56.2400        50
    56.2600        44
    56.2800        54
    56.3000        46
    56.3200        52
    56.3400        48
    56.3600        40
    56.3800        46
    56.4000        36
    56.4200        42
    56.4400        48
    56.4600        48
    56.4800        36
    56.5000        52
    56.5200        34
    56.5400        40
    56.5600        48
    56.5800        62
    56.6000        40
    56.6200        24
    56.6400        36
    56.6600        46
    56.6800        44
    56.7000        44
    56.7200        32
    56.7400        42
    56.7600        44
    56.7800        44
    56.8000        40
    56.8200        48
    56.8400        40
    56.8600        48
    56.8800        46
    56.9000        38
    56.9200        36
    56.9400        52
    56.9600        40
    56.9800        50
    57.0000        50
    57.0200        64
    57.0400        64
    57.0600        72
    57.0800        58
    57.1000        90
    57.1200        60
    57.1400        48
    57.1600        56
    57.1800        68
    57.2000        60
    57.2200        50
    57.2400        56
    57.2600        54
    57.2800        60
    57.3000        56
    57.3200        60
    57.3400        58
    57.3600        64
    57.3800        72
    57.4000        54
    57.4200        78
    57.4400        78
    57.4600        62
    57.4800        56
    57.5000        54
    57.5200        72
    57.5400        54
    57.5600        90
    57.5800        88
    57.6000       114
    57.6200        94
    57.6400       126
    57.6600       134
    57.6800       128
    57.7000       140
    57.7200       150
    57.7400       140
    57.7600       162
    57.7800       142
    57.8000       162
    57.8200       162
    57.8400       138
    57.8600       140
    57.8800       120
    57.9000       148
    57.9200       134
    57.9400       164
    57.9600       144
    57.9800       172
    58.0000       168
    58.0200       116
    58.0400       116
    58.0600       118
    58.0800        94
    58.1000        80
    58.1200       108
    58.1400       110
    58.1600       108
    58.1800        74
    58.2000        90
    58.2200        80
    58.2400        70
    58.2600        66
    58.2800        78
    58.3000        82
    58.3200        68
    58.3400        76
    58.3600        66
    58.3800        72
    58.4000        58
    58.4200        54
    58.4400        46
    58.4600        54
    58.4800        64
    58.5000        54
    58.5200        62
    58.5400        54
    58.5600        68
    58.5800        48
    58.6000        60
    58.6200        52
    58.6400        74
    58.6600        50
    58.6800        56
    58.7000        32
    58.7200        54
    58.7400        60
    58.7600        58
    58.7800        56
    58.8000        58
    58.8200        64
    58.8400        68
    58.8600        66
    58.8800        62
    58.9000        62
    58.9200        58
    58.9400        56
    58.9600        64
    58.9800        78
    59.0000        84
    59.0200        70
    59.0400        88
    59.0600        66
    59.0800        60
    59.1000        68
    59.1200        74
    59.1400        96
    59.1600        68
    59.1800        70
    59.2000        92
    59.2200       122
    59.2400       112
    59.2600       156
    59.2800       158
    59.3000       194
    59.3200       174
    59.3400       194
    59.3600       158
    59.3800       148
    59.4000       172
    59.4200       132
    59.4400       154
    59.4600       156
    59.4800       144
    59.5000       138
    59.5200       120
    59.5400       124
    59.5600       106
    59.5800        86
    59.6000        86
    59.6200        98
    59.6400        82
    59.6600        90
    59.6800        74
    59.7000        72
    59.7200        54
    59.7400        80
    59.7600        44
    59.7800        66
    59.8000        80
    59.8200        48
    59.8400        60
    59.8600        52
    59.8800        68
    59.9000        44
    59.9200        44
    59.9400        44
    59.9600        42
    59.9800        52
    60.0000        54
    60.0200        42
    60.0400        54
    60.0600        44
    60.0800        40
    60.1000        38
    60.1200        54
    60.1400        36
    60.1600        48
    60.1800        46
    60.2000        44
    60.2200        52
    60.2400        48
    60.2600        42
    60.2800        40
    60.3000        50
    60.3200        52
    60.3400        44
    60.3600        34
    60.3800        26
    60.4000        42
    60.4200        44
    60.4400        50
    60.4600        46
    60.4800        28
    60.5000        44
    60.5200        46
    60.5400        50
    60.5600        54
    60.5800        46
    60.6000        64
    60.6200        58
    60.6400        60
    60.6600        72
    60.6800        68
    60.7000       106
    60.7200        76
    60.7400        92
    60.7600        96
    60.7800        84
    60.8000        78
    60.8200        84
    60.8400        68
    60.8600        76
    60.8800        74
    60.9000        70
    60.9200        84
    60.9400        72
    60.9600        80
    60.9800        58
    61.0000        54
    61.0200        54
    61.0400        50
    61.0600        48
    61.0800        54
    61.1000        60
    61.1200        60
    61.1400        54
    61.1600        42
    61.1800        38
    61.2000        54
    61.2200        62
    61.2400        58
    61.2600        58
    61.2800        44
    61.3000        44
    61.3200        50
    61.3400        64
    61.3600        68
    61.3800        36
    61.4000        48
    61.4200        46
    61.4400        52
    61.4600        52
    61.4800        54
    61.5000        68
    61.5200        56
    61.5400        48
    61.5600        56
    61.5800        50
    61.6000        54
    61.6200        60
    61.6400        50
    61.6600        54
    61.6800        64
    61.7000        52
    61.7200        54
    61.7400        60
    61.7600        62
    61.7800        74
    61.8000        60
    61.8200        64
    61.8400        70
    61.8600        88
    61.8800        88
    61.9000        70
    61.9200        66
    61.9400        68
    61.9600        84
    61.9800        82
    62.0000        84
    62.0200        52
    62.0400        88
    62.0600        62
    62.0800        76
    62.1000        68
    62.1200        78
    62.1400        56
    62.1600        68
    62.1800        60
    62.2000        50
    62.2200        42
    62.2400        44
    62.2600        36
    62.2800        50
    62.3000        52
    62.3200        56
    62.3400        64
    62.3600        62
    62.3800        46
    62.4000        46
    62.4200        62
    62.4400        50
    62.4600        66
    62.4800        48
    62.5000        50
    62.5200        60
    62.5400        76
    62.5600        48
    62.5800        44
    62.6000        50
    62.6200        46
    62.6400        54
    62.6600        40
    62.6800        40
    62.7000        44
    62.7200        42
    62.7400        54
    62.7600        32
    62.7800        48
    62.8000        50
    62.8200        40
    62.8400        34
    62.8600        46
    62.8800        50
    62.9000        48
    62.9200        42
    62.9400        52
    62.9600        46
    62.9800        54
    63.0000        36
    63.0200        44
    63.0400        50
    63.0600        56
    63.0800        44
    63.1000        46
    63.1200        44
    63.1400        46
    63.1600        46
    63.1800        58
    63.2000        48
    63.2200        52
    63.2400        50
    63.2600        68
    63.2800        60
    63.3000        66
    63.3200        82
    63.3400        66
    63.3600        74
    63.3800        68
    63.4000        76
    63.4200        54
    63.4400        70
    63.4600        70
    63.4800        66
    63.5000        68
    63.5200        46
    63.5400        48
    63.5600        66
    63.5800        50
    63.6000        58
    63.6200        36
    63.6400        62
    63.6600        44
    63.6800        42
    63.7000        44
    63.7200        40
    63.7400        42
    63.7600        32
    63.7800        48
    63.8000        54
    63.8200        44
    63.8400        58
    63.8600        44
    63.8800        46
    63.9000        46
    63.9200        52
    63.9400        50
    63.9600        44
    63.9800        50
    64.0000        38
    64.0200        50
    64.0400        50
    64.0600        36
    64.0800        52
    64.1000        54
    64.1200        48
    64.1400        60
    64.1600        58
    64.1800        62
    64.2000        52
    64.2200        54
    64.2400        50
    64.2600        56
    64.2800        36
    64.3000        62
    64.3200        58
    64.3400        56
    64.3600        70
    64.3800        52
    64.4000        68
    64.4200        54
    64.4400        64
    64.4600       116
    64.4800       114
    64.5000       102
    64.5200       108
    64.5400       128
    64.5600       138
    64.5800        94
    64.6000       134
    64.6200       166
    64.6400       152
    64.6600       138
    64.6800       130
    64.7000       158
    64.7200       124
    64.7400       114
    64.7600       104
    64.7800       110
    64.8000       100
    64.8200       114
    64.8400       100
    64.8600       114
    64.8800        86
    64.9000        86
    64.9200        70
    64.9400        72
    64.9600        72
    64.9800        70
    65.0000        72
