/////////////////////////////////////////////////////////////////////////////////
/// Profile Data Ascii Dump (XRD)                                             ///
/////////////////////////////////////////////////////////////////////////////////

  Group     : Swayze
  Data      : WS741
  File Name : WS741.RAW

# Profile Datafile
          comment             = Heulandite 
          date & time         = 08-03-13 07:23:46 

# Measurement Condition
    X-ray tube
          target              = Cu 
          voltage             = 40.0 (kV)
          current             = 30.0 (mA)
    Slits
          divergence slit     = 2.00000 (deg) 
          scatter slit        = 2.00000 (deg) 
          receiving slit      = 0.15000 (mm)  
    Scanning
          drive axis          = Theta-2Theta 
          scan range          =    4.000 -   65.000 
          scan mode           = Continuous Scan 
          scan speed          =   2.0000 (deg/min) 
          sampling pitch      =   0.0200 (deg) 
          preset time         =   0.60 (sec) 

# Data      [ Total No. = 3051 ]
  <2Theta>   <   I   >
     4.0000       196
     4.0200       198
     4.0400       182
     4.0600       184
     4.0800       164
     4.1000       188
     4.1200       198
     4.1400       182
     4.1600       168
     4.1800       180
     4.2000       168
     4.2200       198
     4.2400       144
     4.2600       160
     4.2800       178
     4.3000       160
     4.3200       162
     4.3400       190
     4.3600       162
     4.3800       184
     4.4000       132
     4.4200       150
     4.4400       164
     4.4600       150
     4.4800       168
     4.5000       156
     4.5200       160
     4.5400       206
     4.5600       166
     4.5800       144
     4.6000       146
     4.6200       180
     4.6400       164
     4.6600       160
     4.6800       156
     4.7000       140
     4.7200       162
     4.7400       168
     4.7600       184
     4.7800       174
     4.8000       154
     4.8200       148
     4.8400       190
     4.8600       170
     4.8800       150
     4.9000       146
     4.9200       134
     4.9400       158
     4.9600       166
     4.9800       156
     5.0000       136
     5.0200       146
     5.0400       160
     5.0600       158
     5.0800       150
     5.1000       160
     5.1200       156
     5.1400       154
     5.1600       170
     5.1800       180
     5.2000       182
     5.2200       152
     5.2400       164
     5.2600       170
     5.2800       176
     5.3000       154
     5.3200       168
     5.3400       158
     5.3600       162
     5.3800       182
     5.4000       164
     5.4200       192
     5.4400       170
     5.4600       158
     5.4800       158
     5.5000       170
     5.5200       160
     5.5400       154
     5.5600       164
     5.5800       170
     5.6000       176
     5.6200       156
     5.6400       144
     5.6600       134
     5.6800       160
     5.7000       148
     5.7200       166
     5.7400       176
     5.7600       174
     5.7800       158
     5.8000       146
     5.8200       166
     5.8400       148
     5.8600       166
     5.8800       154
     5.9000       162
     5.9200       134
     5.9400       158
     5.9600       160
     5.9800       168
     6.0000       154
     6.0200       128
     6.0400       146
     6.0600       164
     6.0800       120
     6.1000       188
     6.1200       140
     6.1400       166
     6.1600       172
     6.1800       152
     6.2000       122
     6.2200       142
     6.2400       128
     6.2600       154
     6.2800       190
     6.3000       122
     6.3200       148
     6.3400       168
     6.3600       162
     6.3800       146
     6.4000       156
     6.4200       146
     6.4400       150
     6.4600       130
     6.4800       134
     6.5000       130
     6.5200       116
     6.5400       136
     6.5600       124
     6.5800       148
     6.6000       110
     6.6200       140
     6.6400       136
     6.6600       136
     6.6800       170
     6.7000       120
     6.7200       126
     6.7400       120
     6.7600       134
     6.7800       148
     6.8000       136
     6.8200       122
     6.8400       132
     6.8600       126
     6.8800       140
     6.9000       136
     6.9200       104
     6.9400       132
     6.9600       128
     6.9800       126
     7.0000       100
     7.0200       106
     7.0400       130
     7.0600       114
     7.0800       130
     7.1000       128
     7.1200       110
     7.1400       134
     7.1600       102
     7.1800       118
     7.2000        98
     7.2200       136
     7.2400       122
     7.2600       124
     7.2800       126
     7.3000       114
     7.3200       106
     7.3400       120
     7.3600       114
     7.3800       130
     7.4000       152
     7.4200       110
     7.4400       118
     7.4600       112
     7.4800       108
     7.5000       130
     7.5200       114
     7.5400       120
     7.5600       134
     7.5800       112
     7.6000       120
     7.6200       134
     7.6400       116
     7.6600       120
     7.6800       124
     7.7000       122
     7.7200       106
     7.7400       126
     7.7600       112
     7.7800       118
     7.8000       122
     7.8200       110
     7.8400       102
     7.8600       112
     7.8800       112
     7.9000       120
     7.9200       104
     7.9400       116
     7.9600       118
     7.9800       114
     8.0000       140
     8.0200       104
     8.0400       108
     8.0600       112
     8.0800        86
     8.1000       116
     8.1200       108
     8.1400       112
     8.1600        98
     8.1800       116
     8.2000       110
     8.2200       126
     8.2400       108
     8.2600       108
     8.2800        82
     8.3000       120
     8.3200       116
     8.3400       112
     8.3600       116
     8.3800       118
     8.4000       126
     8.4200       130
     8.4400       112
     8.4600       122
     8.4800       120
     8.5000       114
     8.5200       124
     8.5400       126
     8.5600       126
     8.5800       136
     8.6000       144
     8.6200       126
     8.6400       152
     8.6600       148
     8.6800       154
     8.7000       128
     8.7200       136
     8.7400       126
     8.7600       136
     8.7800       118
     8.8000       150
     8.8200       134
     8.8400       132
     8.8600       144
     8.8800       138
     8.9000       126
     8.9200       120
     8.9400       114
     8.9600       158
     8.9800       146
     9.0000       134
     9.0200       150
     9.0400       128
     9.0600       140
     9.0800       122
     9.1000       142
     9.1200       142
     9.1400       146
     9.1600       148
     9.1800       138
     9.2000       176
     9.2200       168
     9.2400       176
     9.2600       214
     9.2800       186
     9.3000       176
     9.3200       222
     9.3400       238
     9.3600       272
     9.3800       266
     9.4000       266
     9.4200       346
     9.4400       406
     9.4600       460
     9.4800       512
     9.5000       532
     9.5200       586
     9.5400       716
     9.5600       680
     9.5800       882
     9.6000       986
     9.6200      1210
     9.6400      1336
     9.6600      1530
     9.6800      1850
     9.7000      2450
     9.7200      3394
     9.7400      5472
     9.7600      8158
     9.7800     10198
     9.8000     10834
     9.8200      9818
     9.8400      7582
     9.8600      4922
     9.8800      2894
     9.9000      1598
     9.9200       832
     9.9400       478
     9.9600       354
     9.9800       324
    10.0000       304
    10.0200       288
    10.0400       248
    10.0600       276
    10.0800       222
    10.1000       196
    10.1200       162
    10.1400       168
    10.1600       152
    10.1800       108
    10.2000       118
    10.2200       118
    10.2400       110
    10.2600       108
    10.2800       118
    10.3000       108
    10.3200        94
    10.3400       108
    10.3600       104
    10.3800        94
    10.4000       100
    10.4200       120
    10.4400        94
    10.4600        96
    10.4800       124
    10.5000        98
    10.5200       118
    10.5400       108
    10.5600        92
    10.5800       106
    10.6000       114
    10.6200        96
    10.6400       104
    10.6600        92
    10.6800       112
    10.7000       114
    10.7200        94
    10.7400       106
    10.7600       116
    10.7800        90
    10.8000       116
    10.8200        88
    10.8400       120
    10.8600       100
    10.8800       100
    10.9000       120
    10.9200       114
    10.9400       112
    10.9600       128
    10.9800       128
    11.0000       146
    11.0200       154
    11.0400       150
    11.0600       152
    11.0800       126
    11.1000       118
    11.1200       130
    11.1400       120
    11.1600        96
    11.1800       108
    11.2000       108
    11.2200        82
    11.2400        88
    11.2600        98
    11.2800        98
    11.3000        94
    11.3200        98
    11.3400        84
    11.3600        92
    11.3800        92
    11.4000       104
    11.4200        76
    11.4400        98
    11.4600        84
    11.4800       100
    11.5000        80
    11.5200        90
    11.5400        86
    11.5600        92
    11.5800        76
    11.6000        94
    11.6200        90
    11.6400        88
    11.6600        96
    11.6800        70
    11.7000        90
    11.7200        76
    11.7400        90
    11.7600        90
    11.7800        70
    11.8000        68
    11.8200        76
    11.8400        76
    11.8600        86
    11.8800       102
    11.9000        92
    11.9200        84
    11.9400        80
    11.9600        78
    11.9800       106
    12.0000        86
    12.0200        82
    12.0400        74
    12.0600        96
    12.0800        80
    12.1000        74
    12.1200        84
    12.1400        88
    12.1600        84
    12.1800        80
    12.2000        76
    12.2200        74
    12.2400        78
    12.2600        66
    12.2800        66
    12.3000        80
    12.3200        88
    12.3400        72
    12.3600        86
    12.3800        90
    12.4000        78
    12.4200        82
    12.4400        84
    12.4600        68
    12.4800        94
    12.5000        76
    12.5200        74
    12.5400        84
    12.5600        82
    12.5800        88
    12.6000        84
    12.6200        98
    12.6400       144
    12.6600       164
    12.6800       192
    12.7000       166
    12.7200       128
    12.7400       120
    12.7600        94
    12.7800       110
    12.8000       100
    12.8200       112
    12.8400        96
    12.8600       118
    12.8800       138
    12.9000       150
    12.9200       142
    12.9400       124
    12.9600        94
    12.9800        90
    13.0000        90
    13.0200        88
    13.0400        76
    13.0600        80
    13.0800        90
    13.1000       102
    13.1200        88
    13.1400        98
    13.1600        96
    13.1800       112
    13.2000        98
    13.2200       108
    13.2400       112
    13.2600        80
    13.2800        86
    13.3000        64
    13.3200        66
    13.3400        86
    13.3600        88
    13.3800        78
    13.4000        58
    13.4200        56
    13.4400        80
    13.4600        62
    13.4800        70
    13.5000        90
    13.5200        70
    13.5400        72
    13.5600        60
    13.5800        74
    13.6000        68
    13.6200        72
    13.6400        70
    13.6600        68
    13.6800        72
    13.7000        64
    13.7200        78
    13.7400        70
    13.7600        60
    13.7800        64
    13.8000        72
    13.8200        70
    13.8400        80
    13.8600        76
    13.8800        76
    13.9000        88
    13.9200        70
    13.9400        80
    13.9600        60
    13.9800        60
    14.0000        66
    14.0200        58
    14.0400        70
    14.0600        68
    14.0800        72
    14.1000        62
    14.1200        70
    14.1400        70
    14.1600        74
    14.1800        62
    14.2000        66
    14.2200        68
    14.2400        88
    14.2600        68
    14.2800        56
    14.3000        56
    14.3200        78
    14.3400        66
    14.3600        78
    14.3800        64
    14.4000        62
    14.4200        58
    14.4400        56
    14.4600        74
    14.4800        66
    14.5000        70
    14.5200        72
    14.5400        84
    14.5600        54
    14.5800        70
    14.6000        66
    14.6200        62
    14.6400        82
    14.6600        60
    14.6800        84
    14.7000        88
    14.7200        80
    14.7400        84
    14.7600        82
    14.7800        80
    14.8000        78
    14.8200        84
    14.8400        72
    14.8600        74
    14.8800        84
    14.9000        62
    14.9200        66
    14.9400        62
    14.9600        64
    14.9800        68
    15.0000        66
    15.0200        66
    15.0400        60
    15.0600        78
    15.0800        64
    15.1000        70
    15.1200        58
    15.1400        70
    15.1600        60
    15.1800        74
    15.2000        64
    15.2200        64
    15.2400        66
    15.2600        66
    15.2800        46
    15.3000        60
    15.3200        86
    15.3400        60
    15.3600        54
    15.3800        62
    15.4000        62
    15.4200        78
    15.4400        68
    15.4600        78
    15.4800        66
    15.5000        74
    15.5200        72
    15.5400        62
    15.5600        72
    15.5800        76
    15.6000        84
    15.6200        80
    15.6400        96
    15.6600        92
    15.6800        98
    15.7000       114
    15.7200       102
    15.7400       116
    15.7600       136
    15.7800       130
    15.8000       116
    15.8200        92
    15.8400        92
    15.8600        84
    15.8800        56
    15.9000        60
    15.9200        72
    15.9400        78
    15.9600        58
    15.9800        70
    16.0000        56
    16.0200        56
    16.0400        70
    16.0600        70
    16.0800        70
    16.1000        64
    16.1200        58
    16.1400        64
    16.1600        64
    16.1800        68
    16.2000        70
    16.2200        86
    16.2400        76
    16.2600        78
    16.2800        72
    16.3000        80
    16.3200        70
    16.3400        78
    16.3600        62
    16.3800        78
    16.4000        98
    16.4200        90
    16.4400       102
    16.4600       100
    16.4800       110
    16.5000       138
    16.5200        98
    16.5400        90
    16.5600       100
    16.5800       108
    16.6000       120
    16.6200       110
    16.6400       134
    16.6600       120
    16.6800       110
    16.7000        86
    16.7200       120
    16.7400       132
    16.7600       110
    16.7800       120
    16.8000       124
    16.8200       110
    16.8400       118
    16.8600        94
    16.8800        94
    16.9000        80
    16.9200        62
    16.9400        82
    16.9600        70
    16.9800        88
    17.0000        76
    17.0200       100
    17.0400        96
    17.0600        86
    17.0800        82
    17.1000        92
    17.1200       118
    17.1400       134
    17.1600       152
    17.1800       126
    17.2000       126
    17.2200       162
    17.2400       140
    17.2600       134
    17.2800       122
    17.3000       126
    17.3200       126
    17.3400       126
    17.3600       120
    17.3800       116
    17.4000       104
    17.4200        96
    17.4400        92
    17.4600        80
    17.4800        86
    17.5000        80
    17.5200        60
    17.5400        72
    17.5600        54
    17.5800        44
    17.6000        60
    17.6200        56
    17.6400        58
    17.6600        70
    17.6800        68
    17.7000        58
    17.7200        66
    17.7400        56
    17.7600        66
    17.7800        60
    17.8000        60
    17.8200        74
    17.8400        60
    17.8600        58
    17.8800        58
    17.9000        62
    17.9200        54
    17.9400        62
    17.9600        68
    17.9800        62
    18.0000        60
    18.0200        46
    18.0400        54
    18.0600        58
    18.0800        74
    18.1000        62
    18.1200        46
    18.1400        78
    18.1600        64
    18.1800        56
    18.2000        54
    18.2200        62
    18.2400        50
    18.2600        54
    18.2800        64
    18.3000        66
    18.3200        80
    18.3400        60
    18.3600        66
    18.3800        56
    18.4000        60
    18.4200        72
    18.4400        58
    18.4600        58
    18.4800        74
    18.5000        46
    18.5200        56
    18.5400        64
    18.5600        68
    18.5800        86
    18.6000        60
    18.6200        70
    18.6400        76
    18.6600        96
    18.6800        82
    18.7000        84
    18.7200        98
    18.7400        86
    18.7600       134
    18.7800       124
    18.8000       150
    18.8200       154
    18.8400       240
    18.8600       232
    18.8800       270
    18.9000       296
    18.9200       306
    18.9400       338
    18.9600       330
    18.9800       292
    19.0000       292
    19.0200       212
    19.0400       170
    19.0600       128
    19.0800        78
    19.1000        84
    19.1200        68
    19.1400        56
    19.1600        58
    19.1800        56
    19.2000        74
    19.2200        70
    19.2400        60
    19.2600        62
    19.2800        68
    19.3000        52
    19.3200        64
    19.3400        70
    19.3600        62
    19.3800        50
    19.4000        54
    19.4200        68
    19.4400        54
    19.4600        64
    19.4800        64
    19.5000        58
    19.5200        64
    19.5400        64
    19.5600        74
    19.5800        80
    19.6000        88
    19.6200        96
    19.6400       100
    19.6600       116
    19.6800       148
    19.7000       190
    19.7200       214
    19.7400       236
    19.7600       202
    19.7800       206
    19.8000       174
    19.8200       158
    19.8400       140
    19.8600       118
    19.8800        78
    19.9000        76
    19.9200        84
    19.9400        64
    19.9600        66
    19.9800        64
    20.0000        70
    20.0200        66
    20.0400        58
    20.0600        72
    20.0800        66
    20.1000        72
    20.1200        88
    20.1400       114
    20.1600       106
    20.1800        92
    20.2000       108
    20.2200        88
    20.2400       102
    20.2600        96
    20.2800        84
    20.3000        66
    20.3200        64
    20.3400        60
    20.3600        52
    20.3800        58
    20.4000        72
    20.4200        52
    20.4400        64
    20.4600        42
    20.4800        44
    20.5000        68
    20.5200        56
    20.5400        60
    20.5600        52
    20.5800        54
    20.6000        52
    20.6200        58
    20.6400        62
    20.6600        46
    20.6800        38
    20.7000        46
    20.7200        64
    20.7400        58
    20.7600        52
    20.7800        50
    20.8000        50
    20.8200        50
    20.8400        48
    20.8600        50
    20.8800        60
    20.9000        60
    20.9200        62
    20.9400        50
    20.9600        70
    20.9800        60
    21.0000        50
    21.0200        40
    21.0400        46
    21.0600        56
    21.0800        68
    21.1000        40
    21.1200        36
    21.1400        68
    21.1600        60
    21.1800        62
    21.2000        50
    21.2200        54
    21.2400        56
    21.2600        62
    21.2800        62
    21.3000        50
    21.3200        50
    21.3400        58
    21.3600        58
    21.3800        62
    21.4000        50
    21.4200        54
    21.4400        54
    21.4600        56
    21.4800        44
    21.5000        54
    21.5200        80
    21.5400        80
    21.5600        52
    21.5800        58
    21.6000        58
    21.6200        58
    21.6400        60
    21.6600        68
    21.6800        44
    21.7000        76
    21.7200        54
    21.7400        72
    21.7600        66
    21.7800        74
    21.8000        70
    21.8200        80
    21.8400        64
    21.8600        88
    21.8800        78
    21.9000        98
    21.9200        68
    21.9400        92
    21.9600        98
    21.9800        82
    22.0000       112
    22.0200       140
    22.0400       120
    22.0600       162
    22.0800       174
    22.1000       226
    22.1200       312
    22.1400       354
    22.1600       438
    22.1800       480
    22.2000       558
    22.2200       544
    22.2400       552
    22.2600       520
    22.2800       486
    22.3000       418
    22.3200       372
    22.3400       364
    22.3600       322
    22.3800       288
    22.4000       264
    22.4200       232
    22.4400       238
    22.4600       212
    22.4800       236
    22.5000       242
    22.5200       228
    22.5400       248
    22.5600       268
    22.5800       310
    22.6000       364
    22.6200       378
    22.6400       450
    22.6600       500
    22.6800       490
    22.7000       468
    22.7200       476
    22.7400       398
    22.7600       394
    22.7800       288
    22.8000       228
    22.8200       144
    22.8400       136
    22.8600       118
    22.8800        92
    22.9000        84
    22.9200        66
    22.9400        82
    22.9600       108
    22.9800       100
    23.0000        70
    23.0200        90
    23.0400       114
    23.0600       118
    23.0800       134
    23.1000       130
    23.1200       110
    23.1400        88
    23.1600        84
    23.1800        56
    23.2000        62
    23.2200        60
    23.2400        50
    23.2600        60
    23.2800        48
    23.3000        58
    23.3200        44
    23.3400        54
    23.3600        46
    23.3800        60
    23.4000        58
    23.4200        54
    23.4400        70
    23.4600        72
    23.4800        68
    23.5000        60
    23.5200        70
    23.5400        74
    23.5600        82
    23.5800        66
    23.6000       106
    23.6200       126
    23.6400       122
    23.6600       122
    23.6800       118
    23.7000       130
    23.7200       136
    23.7400       112
    23.7600       104
    23.7800       114
    23.8000       108
    23.8200       110
    23.8400       100
    23.8600        86
    23.8800        88
    23.9000        86
    23.9200        66
    23.9400        70
    23.9600        60
    23.9800        70
    24.0000        78
    24.0200        58
    24.0400        50
    24.0600        46
    24.0800        48
    24.1000        64
    24.1200        50
    24.1400        56
    24.1600        54
    24.1800        42
    24.2000        54
    24.2200        44
    24.2400        58
    24.2600        46
    24.2800        58
    24.3000        60
    24.3200        56
    24.3400        54
    24.3600        68
    24.3800        54
    24.4000        82
    24.4200        72
    24.4400        60
    24.4600        64
    24.4800        56
    24.5000        66
    24.5200        56
    24.5400        52
    24.5600        50
    24.5800        56
    24.6000        50
    24.6200        52
    24.6400        52
    24.6600        68
    24.6800        64
    24.7000        68
    24.7200        74
    24.7400        78
    24.7600       104
    24.7800        98
    24.8000       104
    24.8200       128
    24.8400       110
    24.8600       142
    24.8800       102
    24.9000        96
    24.9200        80
    24.9400        90
    24.9600        82
    24.9800        72
    25.0000        82
    25.0200        48
    25.0400        60
    25.0600        70
    25.0800        56
    25.1000        68
    25.1200        64
    25.1400        84
    25.1600        74
    25.1800        98
    25.2000        90
    25.2200        80
    25.2400        82
    25.2600        74
    25.2800        76
    25.3000        84
    25.3200       104
    25.3400       110
    25.3600       136
    25.3800       112
    25.4000       156
    25.4200       136
    25.4400       132
    25.4600       116
    25.4800       120
    25.5000       126
    25.5200       112
    25.5400       122
    25.5600       114
    25.5800        96
    25.6000        98
    25.6200        88
    25.6400        86
    25.6600        76
    25.6800        80
    25.7000       100
    25.7200       118
    25.7400       132
    25.7600       144
    25.7800       184
    25.8000       202
    25.8200       184
    25.8400       216
    25.8600       240
    25.8800       254
    25.9000       236
    25.9200       186
    25.9400       178
    25.9600       162
    25.9800       132
    26.0000       114
    26.0200       132
    26.0400       128
    26.0600       140
    26.0800       118
    26.1000       140
    26.1200       150
    26.1400       112
    26.1600        96
    26.1800        92
    26.2000        80
    26.2200        60
    26.2400        48
    26.2600        64
    26.2800        64
    26.3000        46
    26.3200        52
    26.3400        62
    26.3600        60
    26.3800        48
    26.4000        52
    26.4200        46
    26.4400        60
    26.4600        46
    26.4800        52
    26.5000        78
    26.5200        62
    26.5400        60
    26.5600        62
    26.5800        64
    26.6000        66
    26.6200        90
    26.6400        74
    26.6600        94
    26.6800        78
    26.7000        78
    26.7200        76
    26.7400        74
    26.7600        64
    26.7800        64
    26.8000        58
    26.8200        70
    26.8400        54
    26.8600        58
    26.8800        62
    26.9000        48
    26.9200        58
    26.9400        48
    26.9600        60
    26.9800        52
    27.0000        46
    27.0200        40
    27.0400        40
    27.0600        50
    27.0800        54
    27.1000        44
    27.1200        52
    27.1400        54
    27.1600        66
    27.1800        58
    27.2000        58
    27.2200        48
    27.2400        52
    27.2600        46
    27.2800        46
    27.3000        54
    27.3200        44
    27.3400        56
    27.3600        48
    27.3800        50
    27.4000        56
    27.4200        50
    27.4400        62
    27.4600        66
    27.4800        48
    27.5000        54
    27.5200        52
    27.5400        44
    27.5600        50
    27.5800        48
    27.6000        50
    27.6200        66
    27.6400        60
    27.6600        52
    27.6800        78
    27.7000       100
    27.7200       120
    27.7400       130
    27.7600       136
    27.7800       128
    27.8000       150
    27.8200       156
    27.8400       130
    27.8600       184
    27.8800       146
    27.9000       174
    27.9200       194
    27.9400       184
    27.9600       188
    27.9800       178
    28.0000       160
    28.0200       120
    28.0400       116
    28.0600       106
    28.0800        76
    28.1000        76
    28.1200        92
    28.1400        78
    28.1600        64
    28.1800        80
    28.2000        72
    28.2200        68
    28.2400        78
    28.2600        98
    28.2800       124
    28.3000       162
    28.3200       184
    28.3400       206
    28.3600       212
    28.3800       206
    28.4000       214
    28.4200       242
    28.4400       220
    28.4600       206
    28.4800       194
    28.5000       184
    28.5200       168
    28.5400       132
    28.5600       120
    28.5800       130
    28.6000       124
    28.6200       106
    28.6400        86
    28.6600        78
    28.6800        96
    28.7000        78
    28.7200        80
    28.7400        94
    28.7600       100
    28.7800       112
    28.8000       118
    28.8200       134
    28.8400       138
    28.8600       132
    28.8800       142
    28.9000       138
    28.9200       124
    28.9400       118
    28.9600       124
    28.9800        96
    29.0000        90
    29.0200        86
    29.0400        78
    29.0600        70
    29.0800        62
    29.1000        72
    29.1200        84
    29.1400        84
    29.1600        68
    29.1800        66
    29.2000        68
    29.2200        84
    29.2400        72
    29.2600        86
    29.2800        66
    29.3000        84
    29.3200        80
    29.3400        76
    29.3600        78
    29.3800        78
    29.4000       112
    29.4200       108
    29.4400       104
    29.4600       116
    29.4800       122
    29.5000       144
    29.5200       174
    29.5400       180
    29.5600       214
    29.5800       230
    29.6000       296
    29.6200       320
    29.6400       352
    29.6600       350
    29.6800       420
    29.7000       462
    29.7200       476
    29.7400       586
    29.7600       698
    29.7800       828
    29.8000       914
    29.8200       990
    29.8400      1148
    29.8600      1224
    29.8800      1274
    29.9000      1290
    29.9200      1316
    29.9400      1350
    29.9600      1282
    29.9800      1138
    30.0000      1008
    30.0200       950
    30.0400       818
    30.0600       750
    30.0800       544
    30.1000       472
    30.1200       414
    30.1400       358
    30.1600       264
    30.1800       206
    30.2000       164
    30.2200       146
    30.2400       110
    30.2600       102
    30.2800        90
    30.3000        88
    30.3200        70
    30.3400        58
    30.3600        74
    30.3800        66
    30.4000        50
    30.4200        56
    30.4400        64
    30.4600        56
    30.4800        56
    30.5000        46
    30.5200        74
    30.5400        60
    30.5600        52
    30.5800        42
    30.6000        42
    30.6200        56
    30.6400        42
    30.6600        74
    30.6800        50
    30.7000        48
    30.7200        44
    30.7400        58
    30.7600        52
    30.7800        66
    30.8000        50
    30.8200        84
    30.8400        60
    30.8600        56
    30.8800        60
    30.9000        60
    30.9200        68
    30.9400        52
    30.9600        46
    30.9800        44
    31.0000        56
    31.0200        40
    31.0400        56
    31.0600        44
    31.0800        54
    31.1000        40
    31.1200        58
    31.1400        44
    31.1600        50
    31.1800        42
    31.2000        46
    31.2200        48
    31.2400        54
    31.2600        60
    31.2800        40
    31.3000        60
    31.3200        52
    31.3400        50
    31.3600        46
    31.3800        58
    31.4000        52
    31.4200        64
    31.4400        64
    31.4600        52
    31.4800        48
    31.5000        42
    31.5200        62
    31.5400        62
    31.5600        60
    31.5800        72
    31.6000        90
    31.6200        86
    31.6400       126
    31.6600       132
    31.6800       120
    31.7000       152
    31.7200       208
    31.7400       302
    31.7600       346
    31.7800       312
    31.8000       324
    31.8200       292
    31.8400       298
    31.8600       328
    31.8800       310
    31.9000       256
    31.9200       188
    31.9400       176
    31.9600       160
    31.9800       120
    32.0000        88
    32.0200        68
    32.0400        82
    32.0600        66
    32.0800        66
    32.1000        80
    32.1200        50
    32.1400        56
    32.1600        46
    32.1800        52
    32.2000        50
    32.2200        68
    32.2400        64
    32.2600        92
    32.2800        84
    32.3000        62
    32.3200        86
    32.3400        84
    32.3600        76
    32.3800        86
    32.4000        98
    32.4200       104
    32.4400       106
    32.4600       130
    32.4800       126
    32.5000       154
    32.5200       164
    32.5400       162
    32.5600       216
    32.5800       206
    32.6000       228
    32.6200       274
    32.6400       282
    32.6600       352
    32.6800       348
    32.7000       346
    32.7200       396
    32.7400       384
    32.7600       356
    32.7800       366
    32.8000       308
    32.8200       278
    32.8400       248
    32.8600       248
    32.8800       228
    32.9000       146
    32.9200       136
    32.9400       116
    32.9600       102
    32.9800        80
    33.0000        70
    33.0200        66
    33.0400        64
    33.0600        72
    33.0800        56
    33.1000        52
    33.1200        56
    33.1400        48
    33.1600        50
    33.1800        52
    33.2000        64
    33.2200        56
    33.2400        54
    33.2600        40
    33.2800        50
    33.3000        52
    33.3200        60
    33.3400        62
    33.3600        66
    33.3800        62
    33.4000        76
    33.4200        84
    33.4400        52
    33.4600        72
    33.4800        84
    33.5000        56
    33.5200        72
    33.5400        66
    33.5600        52
    33.5800        44
    33.6000        56
    33.6200        58
    33.6400        50
    33.6600        42
    33.6800        52
    33.7000        68
    33.7200        38
    33.7400        44
    33.7600        42
    33.7800        42
    33.8000        36
    33.8200        30
    33.8400        54
    33.8600        48
    33.8800        34
    33.9000        62
    33.9200        38
    33.9400        36
    33.9600        54
    33.9800        70
    34.0000        38
    34.0200        36
    34.0400        36
    34.0600        42
    34.0800        44
    34.1000        36
    34.1200        60
    34.1400        40
    34.1600        44
    34.1800        40
    34.2000        42
    34.2200        46
    34.2400        46
    34.2600        28
    34.2800        44
    34.3000        48
    34.3200        38
    34.3400        42
    34.3600        38
    34.3800        44
    34.4000        38
    34.4200        36
    34.4400        52
    34.4600        42
    34.4800        44
    34.5000        36
    34.5200        46
    34.5400        44
    34.5600        44
    34.5800        54
    34.6000        46
    34.6200        38
    34.6400        38
    34.6600        48
    34.6800        54
    34.7000        54
    34.7200        70
    34.7400        36
    34.7600        50
    34.7800        48
    34.8000        46
    34.8200        68
    34.8400        50
    34.8600        52
    34.8800        50
    34.9000        50
    34.9200        54
    34.9400        54
    34.9600        58
    34.9800        70
    35.0000        60
    35.0200        60
    35.0400        58
    35.0600        64
    35.0800        88
    35.1000        70
    35.1200        74
    35.1400        70
    35.1600        92
    35.1800        72
    35.2000        92
    35.2200       118
    35.2400        96
    35.2600       120
    35.2800       130
    35.3000       154
    35.3200       138
    35.3400       174
    35.3600       168
    35.3800       202
    35.4000       194
    35.4200       226
    35.4400       192
    35.4600       226
    35.4800       242
    35.5000       246
    35.5200       272
    35.5400       220
    35.5600       250
    35.5800       204
    35.6000       184
    35.6200       162
    35.6400       138
    35.6600       130
    35.6800       102
    35.7000        70
    35.7200        78
    35.7400        66
    35.7600        60
    35.7800        56
    35.8000        72
    35.8200        42
    35.8400        60
    35.8600        64
    35.8800        64
    35.9000        76
    35.9200        54
    35.9400        84
    35.9600        78
    35.9800        86
    36.0000        70
    36.0200        82
    36.0400        82
    36.0600        82
    36.0800        86
    36.1000        80
    36.1200        78
    36.1400        72
    36.1600        70
    36.1800        74
    36.2000        74
    36.2200        60
    36.2400        88
    36.2600        84
    36.2800       102
    36.3000        90
    36.3200       100
    36.3400       112
    36.3600       124
    36.3800        98
    36.4000        92
    36.4200       110
    36.4400       100
    36.4600       106
    36.4800        98
    36.5000        88
    36.5200        82
    36.5400        96
    36.5600       110
    36.5800       106
    36.6000       118
    36.6200       108
    36.6400       134
    36.6600       116
    36.6800       148
    36.7000       146
    36.7200       138
    36.7400       108
    36.7600       122
    36.7800       136
    36.8000       132
    36.8200       114
    36.8400       108
    36.8600       126
    36.8800       150
    36.9000       142
    36.9200       170
    36.9400       174
    36.9600       148
    36.9800       154
    37.0000       116
    37.0200       124
    37.0400       124
    37.0600       128
    37.0800        92
    37.1000        92
    37.1200        72
    37.1400        74
    37.1600        80
    37.1800        60
    37.2000        56
    37.2200        62
    37.2400        40
    37.2600        66
    37.2800        42
    37.3000        44
    37.3200        46
    37.3400        44
    37.3600        54
    37.3800        48
    37.4000        40
    37.4200        42
    37.4400        64
    37.4600        56
    37.4800        54
    37.5000        66
    37.5200        68
    37.5400        60
    37.5600        58
    37.5800        70
    37.6000        58
    37.6200        68
    37.6400        60
    37.6600        58
    37.6800        72
    37.7000        50
    37.7200        58
    37.7400        64
    37.7600        62
    37.7800        80
    37.8000        60
    37.8200        58
    37.8400        78
    37.8600        80
    37.8800        80
    37.9000        84
    37.9200        64
    37.9400        80
    37.9600        66
    37.9800        68
    38.0000        56
    38.0200        68
    38.0400        50
    38.0600        74
    38.0800        64
    38.1000        62
    38.1200        74
    38.1400        78
    38.1600        64
    38.1800        72
    38.2000       104
    38.2200       100
    38.2400        78
    38.2600        90
    38.2800        68
    38.3000        72
    38.3200        80
    38.3400        54
    38.3600        68
    38.3800        48
    38.4000        68
    38.4200        46
    38.4400        42
    38.4600        42
    38.4800        68
    38.5000        60
    38.5200        54
    38.5400        58
    38.5600        58
    38.5800        54
    38.6000        64
    38.6200        60
    38.6400        78
    38.6600        60
    38.6800        86
    38.7000        72
    38.7200        84
    38.7400        76
    38.7600        86
    38.7800        90
    38.8000        82
    38.8200        86
    38.8400        88
    38.8600        96
    38.8800        80
    38.9000        96
    38.9200        76
    38.9400        82
    38.9600        76
    38.9800       102
    39.0000        78
    39.0200        88
    39.0400        92
    39.0600        90
    39.0800        54
    39.1000        56
    39.1200        68
    39.1400        62
    39.1600        58
    39.1800        62
    39.2000        62
    39.2200        54
    39.2400        66
    39.2600        68
    39.2800        50
    39.3000        74
    39.3200        60
    39.3400        48
    39.3600        54
    39.3800        70
    39.4000        76
    39.4200        82
    39.4400        64
    39.4600        54
    39.4800        70
    39.5000        60
    39.5200        66
    39.5400        62
    39.5600        48
    39.5800        56
    39.6000        68
    39.6200        56
    39.6400        62
    39.6600        60
    39.6800        48
    39.7000        48
    39.7200        58
    39.7400        52
    39.7600        44
    39.7800        62
    39.8000        50
    39.8200        60
    39.8400        62
    39.8600        56
    39.8800        70
    39.9000        58
    39.9200        50
    39.9400        62
    39.9600        68
    39.9800        82
    40.0000        72
    40.0200        92
    40.0400       112
    40.0600       134
    40.0800       156
    40.1000       176
    40.1200       246
    40.1400       250
    40.1600       222
    40.1800       258
    40.2000       280
    40.2200       306
    40.2400       306
    40.2600       364
    40.2800       306
    40.3000       326
    40.3200       290
    40.3400       236
    40.3600       254
    40.3800       228
    40.4000       174
    40.4200       156
    40.4400       146
    40.4600       126
    40.4800        80
    40.5000        72
    40.5200        58
    40.5400        54
    40.5600        62
    40.5800        50
    40.6000        58
    40.6200        50
    40.6400        58
    40.6600        56
    40.6800        52
    40.7000        72
    40.7200        42
    40.7400        44
    40.7600        50
    40.7800        52
    40.8000        66
    40.8200        52
    40.8400        60
    40.8600        60
    40.8800        62
    40.9000        70
    40.9200        54
    40.9400        46
    40.9600        68
    40.9800        54
    41.0000        56
    41.0200        62
    41.0400        42
    41.0600        60
    41.0800        52
    41.1000        34
    41.1200        48
    41.1400        56
    41.1600        42
    41.1800        46
    41.2000        40
    41.2200        46
    41.2400        64
    41.2600        50
    41.2800        46
    41.3000        42
    41.3200        34
    41.3400        38
    41.3600        36
    41.3800        58
    41.4000        46
    41.4200        46
    41.4400        44
    41.4600        44
    41.4800        50
    41.5000        44
    41.5200        42
    41.5400        46
    41.5600        36
    41.5800        58
    41.6000        46
    41.6200        50
    41.6400        38
    41.6600        60
    41.6800        52
    41.7000        50
    41.7200        52
    41.7400        38
    41.7600        70
    41.7800        58
    41.8000        74
    41.8200        90
    41.8400        84
    41.8600        76
    41.8800        78
    41.9000        74
    41.9200        86
    41.9400        74
    41.9600        88
    41.9800        78
    42.0000        64
    42.0200        52
    42.0400        60
    42.0600        52
    42.0800        68
    42.1000        66
    42.1200        78
    42.1400        74
    42.1600        62
    42.1800        70
    42.2000        70
    42.2200        76
    42.2400        78
    42.2600        68
    42.2800        84
    42.3000        82
    42.3200        88
    42.3400       124
    42.3600        92
    42.3800        98
    42.4000        98
    42.4200       106
    42.4400       116
    42.4600       112
    42.4800       104
    42.5000        92
    42.5200        86
    42.5400       100
    42.5600       106
    42.5800        98
    42.6000        90
    42.6200        78
    42.6400        76
    42.6600        74
    42.6800        94
    42.7000        68
    42.7200        54
    42.7400        58
    42.7600        48
    42.7800        62
    42.8000        44
    42.8200        42
    42.8400        46
    42.8600        44
    42.8800        52
    42.9000        54
    42.9200        40
    42.9400        42
    42.9600        48
    42.9800        60
    43.0000        58
    43.0200        60
    43.0400        78
    43.0600        70
    43.0800        78
    43.1000        92
    43.1200        70
    43.1400        96
    43.1600        92
    43.1800        94
    43.2000        72
    43.2200       104
    43.2400        76
    43.2600        72
    43.2800        68
    43.3000        70
    43.3200        56
    43.3400        72
    43.3600        58
    43.3800        66
    43.4000        72
    43.4200        68
    43.4400        68
    43.4600        72
    43.4800        68
    43.5000        76
    43.5200        60
    43.5400        76
    43.5600        76
    43.5800        70
    43.6000        84
    43.6200        58
    43.6400        64
    43.6600        62
    43.6800        58
    43.7000        62
    43.7200        64
    43.7400        50
    43.7600        56
    43.7800        56
    43.8000        54
    43.8200        56
    43.8400        56
    43.8600        56
    43.8800        64
    43.9000        58
    43.9200        52
    43.9400        56
    43.9600        48
    43.9800        58
    44.0000        54
    44.0200        52
    44.0400        56
    44.0600        46
    44.0800        56
    44.1000        42
    44.1200        40
    44.1400        60
    44.1600        44
    44.1800        52
    44.2000        42
    44.2200        54
    44.2400        44
    44.2600        32
    44.2800        60
    44.3000        52
    44.3200        40
    44.3400        64
    44.3600        46
    44.3800        56
    44.4000        52
    44.4200        62
    44.4400        56
    44.4600        72
    44.4800        50
    44.5000        46
    44.5200        60
    44.5400        58
    44.5600        60
    44.5800        64
    44.6000        58
    44.6200        62
    44.6400        74
    44.6600        74
    44.6800        64
    44.7000        78
    44.7200        68
    44.7400        68
    44.7600        74
    44.7800        82
    44.8000        74
    44.8200        66
    44.8400        54
    44.8600        68
    44.8800        64
    44.9000        66
    44.9200        46
    44.9400        32
    44.9600        42
    44.9800        42
    45.0000        48
    45.0200        48
    45.0400        54
    45.0600        48
    45.0800        50
    45.1000        46
    45.1200        36
    45.1400        46
    45.1600        46
    45.1800        46
    45.2000        40
    45.2200        46
    45.2400        46
    45.2600        42
    45.2800        44
    45.3000        50
    45.3200        50
    45.3400        44
    45.3600        58
    45.3800        54
    45.4000        38
    45.4200        64
    45.4400        48
    45.4600        54
    45.4800        52
    45.5000        64
    45.5200        66
    45.5400        64
    45.5600        66
    45.5800        68
    45.6000        64
    45.6200        70
    45.6400        80
    45.6600        94
    45.6800       100
    45.7000       106
    45.7200       118
    45.7400       114
    45.7600       140
    45.7800       148
    45.8000       164
    45.8200       146
    45.8400       174
    45.8600       182
    45.8800       154
    45.9000       186
    45.9200       200
    45.9400       192
    45.9600       224
    45.9800       194
    46.0000       200
    46.0200       198
    46.0400       184
    46.0600       194
    46.0800       208
    46.1000       188
    46.1200       170
    46.1400       162
    46.1600       146
    46.1800       168
    46.2000       192
    46.2200       164
    46.2400       156
    46.2600       122
    46.2800       112
    46.3000       106
    46.3200       104
    46.3400        92
    46.3600        76
    46.3800        80
    46.4000        74
    46.4200        56
    46.4400        72
    46.4600        72
    46.4800        68
    46.5000        56
    46.5200        72
    46.5400        62
    46.5600        62
    46.5800        78
    46.6000        54
    46.6200        64
    46.6400        74
    46.6600        74
    46.6800        72
    46.7000        74
    46.7200        66
    46.7400        72
    46.7600        66
    46.7800        52
    46.8000        50
    46.8200        58
    46.8400        48
    46.8600        48
    46.8800        54
    46.9000        50
    46.9200        54
    46.9400        58
    46.9600        60
    46.9800        56
    47.0000        56
    47.0200        52
    47.0400        66
    47.0600        56
    47.0800        66
    47.1000        74
    47.1200        66
    47.1400        98
    47.1600        88
    47.1800       112
    47.2000        88
    47.2200       108
    47.2400       114
    47.2600       108
    47.2800        96
    47.3000       114
    47.3200       116
    47.3400       104
    47.3600       108
    47.3800        82
    47.4000        86
    47.4200        82
    47.4400        84
    47.4600        66
    47.4800        66
    47.5000        64
    47.5200        56
    47.5400        58
    47.5600        44
    47.5800        48
    47.6000        48
    47.6200        46
    47.6400        50
    47.6600        56
    47.6800        46
    47.7000        62
    47.7200        48
    47.7400        48
    47.7600        42
    47.7800        36
    47.8000        46
    47.8200        36
    47.8400        42
    47.8600        36
    47.8800        40
    47.9000        30
    47.9200        50
    47.9400        38
    47.9600        38
    47.9800        36
    48.0000        46
    48.0200        48
    48.0400        50
    48.0600        36
    48.0800        40
    48.1000        46
    48.1200        52
    48.1400        34
    48.1600        44
    48.1800        52
    48.2000        46
    48.2200        52
    48.2400        46
    48.2600        38
    48.2800        40
    48.3000        44
    48.3200        48
    48.3400        44
    48.3600        38
    48.3800        50
    48.4000        38
    48.4200        54
    48.4400        42
    48.4600        42
    48.4800        48
    48.5000        52
    48.5200        58
    48.5400        52
    48.5600        64
    48.5800        56
    48.6000        52
    48.6200        56
    48.6400        64
    48.6600        74
    48.6800        60
    48.7000        66
    48.7200        76
    48.7400        78
    48.7600        68
    48.7800        70
    48.8000        86
    48.8200        94
    48.8400        78
    48.8600        78
    48.8800        78
    48.9000        82
    48.9200        68
    48.9400        86
    48.9600        72
    48.9800        76
    49.0000        78
    49.0200        62
    49.0400        66
    49.0600        68
    49.0800        52
    49.1000        46
    49.1200        52
    49.1400        32
    49.1600        52
    49.1800        54
    49.2000        54
    49.2200        28
    49.2400        48
    49.2600        40
    49.2800        38
    49.3000        44
    49.3200        56
    49.3400        52
    49.3600        54
    49.3800        58
    49.4000        38
    49.4200        42
    49.4400        30
    49.4600        50
    49.4800        50
    49.5000        46
    49.5200        42
    49.5400        50
    49.5600        56
    49.5800        60
    49.6000        52
    49.6200        60
    49.6400        48
    49.6600        64
    49.6800        70
    49.7000        70
    49.7200        82
    49.7400       108
    49.7600       100
    49.7800       110
    49.8000        84
    49.8200        96
    49.8400       104
    49.8600        80
    49.8800       100
    49.9000        72
    49.9200        80
    49.9400        72
    49.9600        70
    49.9800        92
    50.0000        62
    50.0200        72
    50.0400        54
    50.0600        72
    50.0800        60
    50.1000        64
    50.1200        80
    50.1400        62
    50.1600        58
    50.1800        52
    50.2000        68
    50.2200        62
    50.2400        42
    50.2600        68
    50.2800        70
    50.3000        66
    50.3200        66
    50.3400        74
    50.3600        58
    50.3800        44
    50.4000        58
    50.4200        62
    50.4400        50
    50.4600        74
    50.4800        74
    50.5000        70
    50.5200        66
    50.5400        70
    50.5600        76
    50.5800        70
    50.6000        82
    50.6200        72
    50.6400       110
    50.6600        92
    50.6800       136
    50.7000       154
    50.7200       172
    50.7400       216
    50.7600       256
    50.7800       328
    50.8000       398
    50.8200       522
    50.8400       580
    50.8600       708
    50.8800       718
    50.9000       642
    50.9200       596
    50.9400       630
    50.9600       650
    50.9800       700
    51.0000       658
    51.0200       668
    51.0400       628
    51.0600       550
    51.0800       516
    51.1000       498
    51.1200       428
    51.1400       384
    51.1600       338
    51.1800       314
    51.2000       232
    51.2200       226
    51.2400       180
    51.2600       172
    51.2800       168
    51.3000       124
    51.3200       106
    51.3400        98
    51.3600        98
    51.3800       108
    51.4000        82
    51.4200        96
    51.4400        96
    51.4600        88
    51.4800        86
    51.5000       104
    51.5200       106
    51.5400       102
    51.5600       112
    51.5800        80
    51.6000        86
    51.6200        90
    51.6400       102
    51.6600        78
    51.6800        96
    51.7000        76
    51.7200        86
    51.7400        86
    51.7600        74
    51.7800        80
    51.8000        72
    51.8200        62
    51.8400        58
    51.8600        78
    51.8800        70
    51.9000        72
    51.9200        60
    51.9400        58
    51.9600        66
    51.9800        54
    52.0000        62
    52.0200        66
    52.0400        50
    52.0600        70
    52.0800        78
    52.1000        68
    52.1200        66
    52.1400        62
    52.1600        64
    52.1800        62
    52.2000        66
    52.2200        68
    52.2400        68
    52.2600        70
    52.2800        68
    52.3000        90
    52.3200        88
    52.3400        76
    52.3600        94
    52.3800        84
    52.4000        78
    52.4200        90
    52.4400        88
    52.4600        90
    52.4800        84
    52.5000        72
    52.5200        46
    52.5400        82
    52.5600        66
    52.5800        86
    52.6000        66
    52.6200        86
    52.6400        90
    52.6600       106
    52.6800        98
    52.7000        98
    52.7200       120
    52.7400       108
    52.7600       120
    52.7800       144
    52.8000       152
    52.8200       156
    52.8400       186
    52.8600       156
    52.8800       174
    52.9000       164
    52.9200       166
    52.9400       172
    52.9600       172
    52.9800       180
    53.0000       212
    53.0200       186
    53.0400       170
    53.0600       150
    53.0800       138
    53.1000       126
    53.1200       106
    53.1400       108
    53.1600        96
    53.1800        98
    53.2000        98
    53.2200        80
    53.2400        76
    53.2600        70
    53.2800        72
    53.3000        66
    53.3200        68
    53.3400        52
    53.3600        54
    53.3800        36
    53.4000        64
    53.4200        48
    53.4400        38
    53.4600        46
    53.4800        42
    53.5000        60
    53.5200        44
    53.5400        56
    53.5600        52
    53.5800        64
    53.6000        50
    53.6200        48
    53.6400        54
    53.6600        56
    53.6800        60
    53.7000        48
    53.7200        44
    53.7400        58
    53.7600        56
    53.7800        56
    53.8000        74
    53.8200        74
    53.8400        82
    53.8600        58
    53.8800        74
    53.9000        84
    53.9200        80
    53.9400        80
    53.9600        74
    53.9800        78
    54.0000        52
    54.0200        54
    54.0400        74
    54.0600        70
    54.0800        52
    54.1000        58
    54.1200        52
    54.1400        54
    54.1600        48
    54.1800        48
    54.2000        44
    54.2200        38
    54.2400        52
    54.2600        50
    54.2800        52
    54.3000        36
    54.3200        62
    54.3400        54
    54.3600        50
    54.3800        46
    54.4000        60
    54.4200        54
    54.4400        54
    54.4600        46
    54.4800        48
    54.5000        56
    54.5200        42
    54.5400        46
    54.5600        48
    54.5800        50
    54.6000        50
    54.6200        40
    54.6400        52
    54.6600        50
    54.6800        48
    54.7000        44
    54.7200        44
    54.7400        68
    54.7600        56
    54.7800        66
    54.8000        58
    54.8200        60
    54.8400        68
    54.8600        66
    54.8800        46
    54.9000        50
    54.9200        62
    54.9400        56
    54.9600        48
    54.9800        44
    55.0000        68
    55.0200        46
    55.0400        52
    55.0600        52
    55.0800        64
    55.1000        44
    55.1200        42
    55.1400        50
    55.1600        46
    55.1800        34
    55.2000        50
    55.2200        40
    55.2400        48
    55.2600        54
    55.2800        56
    55.3000        52
    55.3200        52
    55.3400        56
    55.3600        52
    55.3800        62
    55.4000        50
    55.4200        80
    55.4400        54
    55.4600        78
    55.4800        72
    55.5000        80
    55.5200        74
    55.5400        82
    55.5600        76
    55.5800        84
    55.6000        88
    55.6200        96
    55.6400        88
    55.6600        86
    55.6800        82
    55.7000        90
    55.7200        96
    55.7400        84
    55.7600        76
    55.7800       122
    55.8000        80
    55.8200        76
    55.8400        76
    55.8600        68
    55.8800        54
    55.9000        80
    55.9200        60
    55.9400        28
    55.9600        58
    55.9800        58
    56.0000        68
    56.0200        60
    56.0400        52
    56.0600        60
    56.0800        70
    56.1000        74
    56.1200        78
    56.1400        78
    56.1600        60
    56.1800        54
    56.2000        68
    56.2200        52
    56.2400        80
    56.2600        76
    56.2800        70
    56.3000        90
    56.3200        54
    56.3400        66
    56.3600        70
    56.3800        54
    56.4000        54
    56.4200        46
    56.4400        48
    56.4600        50
    56.4800        64
    56.5000        42
    56.5200        38
    56.5400        52
    56.5600        36
    56.5800        36
    56.6000        52
    56.6200        32
    56.6400        50
    56.6600        54
    56.6800        60
    56.7000        46
    56.7200        46
    56.7400        58
    56.7600        56
    56.7800        50
    56.8000        58
    56.8200        56
    56.8400        60
    56.8600        48
    56.8800        60
    56.9000        72
    56.9200        52
    56.9400        60
    56.9600        54
    56.9800        52
    57.0000        68
    57.0200        38
    57.0400        44
    57.0600        48
    57.0800        38
    57.1000        46
    57.1200        40
    57.1400        30
    57.1600        44
    57.1800        42
    57.2000        46
    57.2200        36
    57.2400        48
    57.2600        44
    57.2800        42
    57.3000        44
    57.3200        30
    57.3400        42
    57.3600        40
    57.3800        36
    57.4000        38
    57.4200        36
    57.4400        36
    57.4600        36
    57.4800        48
    57.5000        38
    57.5200        36
    57.5400        30
    57.5600        42
    57.5800        50
    57.6000        38
    57.6200        52
    57.6400        42
    57.6600        74
    57.6800        64
    57.7000        62
    57.7200        58
    57.7400        56
    57.7600        58
    57.7800        82
    57.8000        62
    57.8200        52
    57.8400        66
    57.8600        60
    57.8800        64
    57.9000        48
    57.9200        78
    57.9400        48
    57.9600        64
    57.9800        56
    58.0000        58
    58.0200        50
    58.0400        58
    58.0600        46
    58.0800        54
    58.1000        68
    58.1200        46
    58.1400        42
    58.1600        56
    58.1800        34
    58.2000        40
    58.2200        50
    58.2400        54
    58.2600        44
    58.2800        44
    58.3000        40
    58.3200        38
    58.3400        40
    58.3600        40
    58.3800        40
    58.4000        46
    58.4200        32
    58.4400        52
    58.4600        42
    58.4800        40
    58.5000        32
    58.5200        32
    58.5400        40
    58.5600        46
    58.5800        46
    58.6000        42
    58.6200        44
    58.6400        44
    58.6600        50
    58.6800        46
    58.7000        40
    58.7200        42
    58.7400        34
    58.7600        48
    58.7800        38
    58.8000        38
    58.8200        46
    58.8400        44
    58.8600        52
    58.8800        58
    58.9000        54
    58.9200        58
    58.9400        74
    58.9600        54
    58.9800        52
    59.0000        66
    59.0200        68
    59.0400        66
    59.0600        68
    59.0800        62
    59.1000        80
    59.1200        80
    59.1400        78
    59.1600        82
    59.1800        62
    59.2000        70
    59.2200        48
    59.2400        70
    59.2600        62
    59.2800        68
    59.3000        56
    59.3200        72
    59.3400        74
    59.3600        54
    59.3800        62
    59.4000        54
    59.4200        70
    59.4400        72
    59.4600        42
    59.4800        62
    59.5000        52
    59.5200        50
    59.5400        52
    59.5600        58
    59.5800        46
    59.6000        56
    59.6200        40
    59.6400        42
    59.6600        48
    59.6800        32
    59.7000        44
    59.7200        48
    59.7400        48
    59.7600        50
    59.7800        54
    59.8000        46
    59.8200        46
    59.8400        62
    59.8600        44
    59.8800        44
    59.9000        44
    59.9200        46
    59.9400        50
    59.9600        46
    59.9800        42
    60.0000        54
    60.0200        52
    60.0400        54
    60.0600        44
    60.0800        42
    60.1000        38
    60.1200        44
    60.1400        40
    60.1600        46
    60.1800        44
    60.2000        40
    60.2200        44
    60.2400        36
    60.2600        44
    60.2800        34
    60.3000        44
    60.3200        44
    60.3400        36
    60.3600        42
    60.3800        58
    60.4000        40
    60.4200        52
    60.4400        36
    60.4600        44
    60.4800        60
    60.5000        44
    60.5200        48
    60.5400        48
    60.5600        66
    60.5800        56
    60.6000        44
    60.6200        54
    60.6400        56
    60.6600        58
    60.6800        62
    60.7000        74
    60.7200        62
    60.7400        68
    60.7600        60
    60.7800        64
    60.8000        66
    60.8200        68
    60.8400        68
    60.8600        52
    60.8800        70
    60.9000        62
    60.9200        50
    60.9400        62
    60.9600        50
    60.9800        46
    61.0000        42
    61.0200        46
    61.0400        54
    61.0600        44
    61.0800        44
    61.1000        42
    61.1200        42
    61.1400        36
    61.1600        54
    61.1800        42
    61.2000        38
    61.2200        34
    61.2400        40
    61.2600        40
    61.2800        28
    61.3000        50
    61.3200        42
    61.3400        44
    61.3600        50
    61.3800        46
    61.4000        36
    61.4200        30
    61.4400        42
    61.4600        32
    61.4800        42
    61.5000        50
    61.5200        34
    61.5400        44
    61.5600        36
    61.5800        62
    61.6000        28
    61.6200        60
    61.6400        42
    61.6600        48
    61.6800        52
    61.7000        42
    61.7200        52
    61.7400        50
    61.7600        54
    61.7800        48
    61.8000        44
    61.8200        48
    61.8400        56
    61.8600        64
    61.8800        62
    61.9000        88
    61.9200        88
    61.9400       108
    61.9600       128
    61.9800       136
    62.0000       170
    62.0200       140
    62.0400       170
    62.0600       170
    62.0800       186
    62.1000       188
    62.1200       204
    62.1400       176
    62.1600       184
    62.1800       186
    62.2000       200
    62.2200       198
    62.2400       224
    62.2600       206
    62.2800       210
    62.3000       214
    62.3200       204
    62.3400       180
    62.3600       194
    62.3800       170
    62.4000       144
    62.4200       130
    62.4400       124
    62.4600       118
    62.4800       138
    62.5000       112
    62.5200        92
    62.5400       106
    62.5600        94
    62.5800        84
    62.6000        80
    62.6200        76
    62.6400        68
    62.6600        66
    62.6800        64
    62.7000        56
    62.7200        52
    62.7400        56
    62.7600        86
    62.7800        64
    62.8000        60
    62.8200        48
    62.8400        62
    62.8600        58
    62.8800        56
    62.9000        54
    62.9200        62
    62.9400        58
    62.9600        54
    62.9800        52
    63.0000        68
    63.0200        68
    63.0400        68
    63.0600        52
    63.0800        62
    63.1000        58
    63.1200        64
    63.1400        62
    63.1600        72
    63.1800        70
    63.2000        74
    63.2200        62
    63.2400        40
    63.2600        62
    63.2800        72
    63.3000        64
    63.3200        74
    63.3400        54
    63.3600        86
    63.3800        68
    63.4000        82
    63.4200        88
    63.4400        84
    63.4600       102
    63.4800        92
    63.5000       106
    63.5200       102
    63.5400        96
    63.5600        74
    63.5800        82
    63.6000        84
    63.6200        98
    63.6400        96
    63.6600        88
    63.6800        74
    63.7000        76
    63.7200        74
    63.7400        88
    63.7600        80
    63.7800        76
    63.8000        90
    63.8200        82
    63.8400        90
    63.8600        86
    63.8800        88
    63.9000        96
    63.9200        88
    63.9400        52
    63.9600        82
    63.9800        74
    64.0000        74
    64.0200        74
    64.0400        78
    64.0600        76
    64.0800        74
    64.1000        82
    64.1200        62
    64.1400        62
    64.1600        70
    64.1800        54
    64.2000        50
    64.2200        52
    64.2400        66
    64.2600        52
    64.2800        66
    64.3000        46
    64.3200        52
    64.3400        44
    64.3600        38
    64.3800        38
    64.4000        42
    64.4200        52
    64.4400        46
    64.4600        44
    64.4800        54
    64.5000        44
    64.5200        48
    64.5400        64
    64.5600        56
    64.5800        68
    64.6000        58
    64.6200        60
    64.6400        68
    64.6600        62
    64.6800        64
    64.7000        76
    64.7200        66
    64.7400        70
    64.7600        76
    64.7800        82
    64.8000        76
    64.8200        86
    64.8400        92
    64.8600        74
    64.8800        70
    64.9000        74
    64.9200        72
    64.9400        58
    64.9600        58
    64.9800        72
    65.0000        62
